# IRAC_CH2 filter 
# Wavelength [microns]  |  Transmission efficiency
3.72249000       1.20100000E-03  
3.72516000       1.09900000E-03  
3.72784000       1.11700000E-03  
3.73052000       1.21300000E-03  
3.73321000       1.21100000E-03  
3.73590000       1.25300000E-03  
3.73859000       1.23100000E-03  
3.74129000       1.20900000E-03  
3.74399000       1.23700000E-03  
3.74669000       1.19700000E-03  
3.74940000       1.12800000E-03  
3.75212000       1.09100000E-03  
3.75483000       1.03700000E-03  
3.75755000       9.56000000E-04  
3.76028000       8.58000000E-04  
3.76301000       7.17000000E-04  
3.76574000       6.02000000E-04  
3.76848000       5.78000000E-04  
3.77122000       5.87000000E-04  
3.77396000       4.74000000E-04  
3.77671000       3.77000000E-04  
3.77946000       3.17000000E-04  
3.78222000       2.33000000E-04  
3.78498000       2.30000000E-04  
3.78775000       1.57000000E-04  
3.79051000       2.28000000E-04  
3.79329000       4.24000000E-04  
3.79606000       4.74000000E-04  
3.79884000       5.63000000E-04  
3.80163000       6.33000000E-04  
3.80442000       4.51000000E-04  
3.80721000       4.64000000E-04  
3.81001000       8.50000000E-04  
3.81281000       9.42000000E-04  
3.81562000       8.12000000E-04  
3.81843000       1.03900000E-03  
3.82124000       1.13600000E-03  
3.82406000       1.04000000E-03  
3.82688000       1.32200000E-03  
3.82971000       1.36100000E-03  
3.83254000       1.19400000E-03  
3.83537000       1.18400000E-03  
3.83821000       1.10800000E-03  
3.84105000       1.12700000E-03  
3.84390000       1.19100000E-03  
3.84675000       1.14200000E-03  
3.84961000       1.13800000E-03  
3.85247000       9.46000000E-04  
3.85533000       9.72000000E-04  
3.85820000       1.02100000E-03  
3.86107000       7.73000000E-04  
3.86395000       6.93000000E-04  
3.86683000       6.47000000E-04  
3.86972000       5.23000000E-04  
3.87261000       4.51000000E-04  
3.87550000       3.66000000E-04  
3.87840000       3.98000000E-04  
3.88130000       3.91000000E-04  
3.88421000       2.23000000E-04  
3.88712000       2.26000000E-04  
3.89004000       3.07000000E-04  
3.89296000       4.01000000E-04  
3.89589000       6.64000000E-04  
3.89881000       1.20600000E-03  
3.90175000       1.62400000E-03  
3.90469000       1.92000000E-03  
3.90763000       2.69700000E-03  
3.91058000       3.55900000E-03  
3.91353000       4.23600000E-03  
3.91648000       5.16300000E-03  
3.91944000       6.27300000E-03  
3.92241000       7.32700000E-03  
3.92538000       8.78600000E-03  
3.92835000       1.06800000E-02  
3.93133000       1.23700000E-02  
3.93431000       1.43200000E-02  
3.93730000       1.66800000E-02  
3.94029000       1.93700000E-02  
3.94329000       2.23200000E-02  
3.94629000       2.58100000E-02  
3.94929000       2.99400000E-02  
3.95230000       3.47900000E-02  
3.95532000       4.02400000E-02  
3.95834000       4.69000000E-02  
3.96136000       5.48100000E-02  
3.96439000       6.38100000E-02  
3.96742000       7.43600000E-02  
3.97046000       8.66900000E-02  
3.97350000       1.01000000E-01  
3.97655000       1.17500000E-01  
3.97960000       1.35800000E-01  
3.98266000       1.57300000E-01  
3.98572000       1.79300000E-01  
3.98879000       2.02300000E-01  
3.99186000       2.28100000E-01  
3.99493000       2.52200000E-01  
3.99801000       2.77500000E-01  
4.00110000       3.00400000E-01  
4.00419000       3.20700000E-01  
4.00728000       3.39000000E-01  
4.01038000       3.55000000E-01  
4.01349000       3.66900000E-01  
4.01659000       3.75500000E-01  
4.01971000       3.80500000E-01  
4.02283000       3.83700000E-01  
4.02595000       3.85400000E-01  
4.02908000       3.84600000E-01  
4.03221000       3.82400000E-01  
4.03535000       3.79800000E-01  
4.03849000       3.78100000E-01  
4.04164000       3.74300000E-01  
4.04479000       3.69500000E-01  
4.04795000       3.65700000E-01  
4.05111000       3.60700000E-01  
4.05428000       3.56800000E-01  
4.05745000       3.53100000E-01  
4.06063000       3.48800000E-01  
4.06381000       3.44300000E-01  
4.06700000       3.40200000E-01  
4.07019000       3.36700000E-01  
4.07339000       3.33700000E-01  
4.07659000       3.30800000E-01  
4.07980000       3.28300000E-01  
4.08301000       3.26800000E-01  
4.08623000       3.26200000E-01  
4.08945000       3.25400000E-01  
4.09268000       3.24900000E-01  
4.09591000       3.25100000E-01  
4.09915000       3.26000000E-01  
4.10239000       3.28300000E-01  
4.10564000       3.30300000E-01  
4.10889000       3.32400000E-01  
4.11215000       3.35100000E-01  
4.11542000       3.38600000E-01  
4.11868000       3.44800000E-01  
4.12196000       3.50700000E-01  
4.12524000       3.55200000E-01  
4.12852000       3.61700000E-01  
4.13181000       3.68900000E-01  
4.13511000       3.76400000E-01  
4.13841000       3.83800000E-01  
4.14171000       3.91600000E-01  
4.14502000       3.99500000E-01  
4.14834000       4.08500000E-01  
4.15166000       4.18100000E-01  
4.15499000       4.26900000E-01  
4.15832000       4.34900000E-01  
4.16166000       4.41100000E-01  
4.16500000       4.47300000E-01  
4.16835000       4.54500000E-01  
4.17170000       4.60500000E-01  
4.17506000       4.66000000E-01  
4.17842000       4.70900000E-01  
4.18179000       4.75500000E-01  
4.18517000       4.79800000E-01  
4.18855000       4.84100000E-01  
4.19193000       4.88500000E-01  
4.19533000       4.90800000E-01  
4.19872000       4.92200000E-01  
4.20213000       4.94800000E-01  
4.20553000       4.96700000E-01  
4.20895000       4.97200000E-01  
4.21237000       4.97400000E-01  
4.21579000       4.97000000E-01  
4.21922000       4.97200000E-01  
4.22266000       4.96300000E-01  
4.22610000       4.94200000E-01  
4.22955000       4.92300000E-01  
4.23300000       4.90400000E-01  
4.23646000       4.88300000E-01  
4.23992000       4.87300000E-01  
4.24339000       4.84700000E-01  
4.24687000       4.80500000E-01  
4.25035000       4.77300000E-01  
4.25383000       4.74900000E-01  
4.25733000       4.72800000E-01  
4.26082000       4.70400000E-01  
4.26433000       4.68000000E-01  
4.26784000       4.67400000E-01  
4.27135000       4.66400000E-01  
4.27487000       4.64600000E-01  
4.27840000       4.65100000E-01  
4.28193000       4.65900000E-01  
4.28547000       4.65700000E-01  
4.28902000       4.66200000E-01  
4.29257000       4.67700000E-01  
4.29613000       4.71400000E-01  
4.29969000       4.74400000E-01  
4.30326000       4.77300000E-01  
4.30683000       4.80700000E-01  
4.31041000       4.83200000E-01  
4.31400000       4.86400000E-01  
4.31759000       4.90200000E-01  
4.32119000       4.92900000E-01  
4.32479000       4.95400000E-01  
4.32840000       4.98300000E-01  
4.33202000       5.01400000E-01  
4.33564000       5.04600000E-01  
4.33927000       5.06900000E-01  
4.34290000       5.09000000E-01  
4.34654000       5.10800000E-01  
4.35019000       5.12800000E-01  
4.35384000       5.14800000E-01  
4.35750000       5.15600000E-01  
4.36116000       5.16200000E-01  
4.36483000       5.19400000E-01  
4.36851000       5.22800000E-01  
4.37219000       5.23700000E-01  
4.37588000       5.25200000E-01  
4.37958000       5.27900000E-01  
4.38328000       5.29900000E-01  
4.38699000       5.31300000E-01  
4.39071000       5.33600000E-01  
4.39443000       5.36800000E-01  
4.39815000       5.39100000E-01  
4.40189000       5.40700000E-01  
4.40563000       5.42300000E-01  
4.40937000       5.43800000E-01  
4.41313000       5.45900000E-01  
4.41689000       5.47300000E-01  
4.42065000       5.47000000E-01  
4.42442000       5.47100000E-01  
4.42820000       5.47900000E-01  
4.43199000       5.48000000E-01  
4.43578000       5.48100000E-01  
4.43957000       5.48100000E-01  
4.44338000       5.46400000E-01  
4.44719000       5.46200000E-01  
4.45101000       5.46700000E-01  
4.45483000       5.44300000E-01  
4.45866000       5.41900000E-01  
4.46250000       5.41700000E-01  
4.46634000       5.41800000E-01  
4.47019000       5.40000000E-01  
4.47405000       5.37500000E-01  
4.47791000       5.36500000E-01  
4.48178000       5.35100000E-01  
4.48566000       5.32300000E-01  
4.48954000       5.31000000E-01  
4.49343000       5.29700000E-01  
4.49733000       5.26600000E-01  
4.50124000       5.23500000E-01  
4.50515000       5.21800000E-01  
4.50906000       5.19100000E-01  
4.51299000       5.16500000E-01  
4.51692000       5.15500000E-01  
4.52086000       5.13500000E-01  
4.52480000       5.11000000E-01  
4.52875000       5.09900000E-01  
4.53271000       5.08200000E-01  
4.53668000       5.06700000E-01  
4.54065000       5.06900000E-01  
4.54463000       5.06900000E-01  
4.54862000       5.05200000E-01  
4.55261000       5.04000000E-01  
4.55661000       5.03700000E-01  
4.56062000       5.03200000E-01  
4.56463000       5.03400000E-01  
4.56865000       5.03200000E-01  
4.57268000       5.01800000E-01  
4.57672000       5.00600000E-01  
4.58076000       4.99800000E-01  
4.58481000       4.98100000E-01  
4.58887000       4.95500000E-01  
4.59293000       4.93900000E-01  
4.59701000       4.93000000E-01  
4.60109000       4.91100000E-01  
4.60517000       4.88900000E-01  
4.60927000       4.86000000E-01  
4.61337000       4.83600000E-01  
4.61747000       4.81200000E-01  
4.62159000       4.77700000E-01  
4.62571000       4.75200000E-01  
4.62984000       4.72500000E-01  
4.63398000       4.69700000E-01  
4.63812000       4.70500000E-01  
4.64228000       4.71700000E-01  
4.64644000       4.72600000E-01  
4.65060000       4.74400000E-01  
4.65478000       4.75100000E-01  
4.65896000       4.76500000E-01  
4.66315000       4.79700000E-01  
4.66735000       4.82600000E-01  
4.67155000       4.84500000E-01  
4.67576000       4.86300000E-01  
4.67998000       4.88900000E-01  
4.68421000       4.91000000E-01  
4.68845000       4.92300000E-01  
4.69269000       4.94100000E-01  
4.69694000       4.95500000E-01  
4.70120000       4.97000000E-01  
4.70547000       4.98300000E-01  
4.70974000       4.98500000E-01  
4.71402000       4.97900000E-01  
4.71831000       4.96600000E-01  
4.72261000       4.94600000E-01  
4.72691000       4.93800000E-01  
4.73123000       4.92300000E-01  
4.73555000       4.89100000E-01  
4.73987000       4.85300000E-01  
4.74421000       4.83300000E-01  
4.74856000       4.80500000E-01  
4.75291000       4.76700000E-01  
4.75727000       4.73800000E-01  
4.76164000       4.70700000E-01  
4.76601000       4.67100000E-01  
4.77040000       4.64800000E-01  
4.77479000       4.62200000E-01  
4.77919000       4.58200000E-01  
4.78360000       4.54300000E-01  
4.78802000       4.51300000E-01  
4.79244000       4.49600000E-01  
4.79688000       4.48500000E-01  
4.80132000       4.46700000E-01  
4.80577000       4.45200000E-01  
4.81023000       4.43600000E-01  
4.81469000       4.42100000E-01  
4.81917000       4.42100000E-01  
4.82365000       4.42100000E-01  
4.82814000       4.40500000E-01  
4.83264000       4.39900000E-01  
4.83715000       4.41000000E-01  
4.84166000       4.41100000E-01  
4.84619000       4.40500000E-01  
4.85072000       4.40900000E-01  
4.85527000       4.41000000E-01  
4.85982000       4.40600000E-01  
4.86437000       4.41100000E-01  
4.86894000       4.41000000E-01  
4.87352000       4.41100000E-01  
4.87810000       4.41400000E-01  
4.88270000       4.41800000E-01  
4.88730000       4.43500000E-01  
4.89191000       4.44100000E-01  
4.89653000       4.44600000E-01  
4.90116000       4.45400000E-01  
4.90579000       4.46100000E-01  
4.91044000       4.46000000E-01  
4.91509000       4.43800000E-01  
4.91976000       4.41900000E-01  
4.92443000       4.39100000E-01  
4.92911000       4.34400000E-01  
4.93380000       4.27100000E-01  
4.93850000       4.18700000E-01  
4.94321000       4.10800000E-01  
4.94792000       4.02300000E-01  
4.95265000       3.93600000E-01  
4.95738000       3.86100000E-01  
4.96213000       3.80000000E-01  
4.96688000       3.76400000E-01  
4.97164000       3.74300000E-01  
4.97641000       3.72600000E-01  
4.98119000       3.71600000E-01  
4.98598000       3.72800000E-01  
4.99078000       3.68600000E-01  
4.99559000       3.56200000E-01  
5.00041000       3.30300000E-01  
5.00523000       2.93200000E-01  
5.01007000       2.47800000E-01  
5.01492000       1.92700000E-01  
5.01977000       1.39000000E-01  
5.02463000       9.68400000E-02  
5.02951000       6.53500000E-02  
5.03439000       4.23600000E-02  
5.03928000       2.73500000E-02  
5.04419000       1.74900000E-02  
5.04910000       1.08100000E-02  
5.05402000       6.69400000E-03  
5.05895000       3.75800000E-03  
5.06389000       1.99300000E-03  
5.06884000       9.01000000E-04  
5.07380000       5.91000000E-04  
5.07877000       4.86000000E-04  
5.08375000       3.03000000E-04  
5.08874000       3.00000000E-04  
5.09374000       3.69000000E-04  
5.09874000       3.03000000E-04  
5.10376000       2.05000000E-04  
5.10879000       1.80000000E-04  
5.11383000       9.60000000E-05  
5.11888000       1.08000000E-04  
5.12394000       1.18000000E-04  
5.12900000       1.90000000E-04  
5.13408000       2.74000000E-04  
5.13917000       2.65000000E-04  
5.14427000       3.05000000E-04  
5.14938000       3.15000000E-04  
5.15450000       2.83000000E-04  
5.15963000       3.71000000E-04  
5.16476000       4.58000000E-04  
5.16991000       4.66000000E-04  
5.17507000       4.60000000E-04  
5.18024000       5.00000000E-04  
5.18542000       4.89000000E-04  
5.19061000       4.11000000E-04  
5.19581000       4.21000000E-04  
5.20103000       4.77000000E-04  
5.20625000       4.31000000E-04  
5.21148000       3.84000000E-04  
5.21672000       4.02000000E-04  
5.22198000       3.86000000E-04  
