# W1 filter 
# Wavelength [microns]  |  Transmission efficiency
2.53000000       6.92000000E-06  
2.54000000       4.56400000E-07  
2.55000000       2.49500000E-07  
2.56000000       2.72000000E-07  
2.57000000       9.04000000E-06  
2.58000000       6.34800000E-06  
2.59000000       4.13600000E-06  
2.60000000       2.79300000E-06  
2.61000000       4.19800000E-04  
2.62000000       1.37900000E-03  
2.63000000       1.08200000E-03  
2.64000000       8.70900000E-04  
2.65000000       9.46700000E-04  
2.66000000       1.01500000E-03  
2.67000000       1.20600000E-03  
2.68000000       3.86900000E-04  
2.69000000       5.88500000E-04  
2.70000000       9.28100000E-04  
2.71000000       9.86200000E-03  
2.72000000       8.70100000E-03  
2.73000000       5.16400000E-03  
2.74000000       3.83900000E-03  
2.75000000       8.23800000E-03  
2.76000000       1.52500000E-02  
2.77000000       2.60300000E-02  
2.78000000       4.97900000E-02  
2.79000000       9.75300000E-02  
2.80000000       1.70100000E-01  
2.81000000       2.50700000E-01  
2.82000000       3.08000000E-01  
2.83000000       3.32000000E-01  
2.84000000       3.28000000E-01  
2.85000000       3.16000000E-01  
2.86000000       3.02000000E-01  
2.87000000       2.86000000E-01  
2.88000000       2.71100000E-01  
2.89000000       2.69100000E-01  
2.90000000       2.81100000E-01  
2.91000000       3.04100000E-01  
2.92000000       3.30300000E-01  
2.93000000       3.53000000E-01  
2.94000000       3.71800000E-01  
2.95000000       3.87700000E-01  
2.96000000       4.02000000E-01  
2.97000000       4.18000000E-01  
2.98000000       4.33000000E-01  
2.99000000       4.43000000E-01  
3.00000000       4.46000000E-01  
3.01000000       4.49000000E-01  
3.02000000       4.52000000E-01  
3.03000000       4.50000000E-01  
3.04000000       4.41000000E-01  
3.05000000       4.30000000E-01  
3.06000000       4.15000000E-01  
3.07000000       3.99000000E-01  
3.08000000       3.80000000E-01  
3.09000000       3.64000000E-01  
3.10000000       3.55000000E-01  
3.11000000       3.62000000E-01  
3.12000000       3.88000000E-01  
3.13000000       4.28000000E-01  
3.14000000       4.65000000E-01  
3.15000000       4.93000000E-01  
3.16000000       5.12000000E-01  
3.17000000       5.26000000E-01  
3.18000000       5.38000000E-01  
3.19000000       5.49000000E-01  
3.20000000       5.58000000E-01  
3.21000000       5.63000000E-01  
3.22000000       5.68000000E-01  
3.23000000       5.71000000E-01  
3.24000000       5.73000000E-01  
3.25000000       5.68000000E-01  
3.26000000       5.62000000E-01  
3.27000000       5.58000000E-01  
3.28000000       5.60000000E-01  
3.29000000       5.75000000E-01  
3.30000000       6.06000000E-01  
3.31000000       6.47000000E-01  
3.32000000       6.90000000E-01  
3.33000000       7.28000000E-01  
3.34000000       7.54000000E-01  
3.35000000       7.67900000E-01  
3.36000000       7.65900000E-01  
3.37000000       7.50900000E-01  
3.38000000       7.33900000E-01  
3.39000000       7.14000000E-01  
3.40000000       6.93000000E-01  
3.41000000       6.81000000E-01  
3.42000000       6.94000000E-01  
3.43000000       7.33000000E-01  
3.44000000       7.85900000E-01  
3.45000000       8.33900000E-01  
3.46000000       8.63900000E-01  
3.47000000       8.77900000E-01  
3.48000000       8.79800000E-01  
3.49000000       8.75800000E-01  
3.50000000       8.72800000E-01  
3.51000000       8.69900000E-01  
3.52000000       8.66900000E-01  
3.53000000       8.64000000E-01  
3.54000000       8.55000000E-01  
3.55000000       8.41000000E-01  
3.56000000       8.23000000E-01  
3.57000000       8.03000000E-01  
3.58000000       7.83000000E-01  
3.59000000       7.70000000E-01  
3.60000000       7.66000000E-01  
3.61000000       7.75000000E-01  
3.62000000       7.92000000E-01  
3.63000000       8.08000000E-01  
3.64000000       8.16000000E-01  
3.65000000       8.18000000E-01  
3.66000000       8.16000000E-01  
3.67000000       8.14000000E-01  
3.68000000       8.11000000E-01  
3.69000000       8.08000000E-01  
3.70000000       8.05100000E-01  
3.71000000       8.04100000E-01  
3.72000000       8.02100000E-01  
3.73000000       7.94100000E-01  
3.74000000       7.69100000E-01  
3.75000000       7.22200000E-01  
3.76000000       6.50300000E-01  
3.77000000       5.54600000E-01  
3.78000000       4.43900000E-01  
3.79000000       3.29000000E-01  
3.80000000       2.27100000E-01  
3.81000000       1.48900000E-01  
3.82000000       9.27200000E-02  
3.83000000       5.66000000E-02  
3.84000000       3.48000000E-02  
3.85000000       2.19500000E-02  
3.86000000       1.39600000E-02  
3.87000000       8.71500000E-03  
3.88000000       5.33500000E-03  
3.89000000       3.77100000E-03  
3.90000000       3.12800000E-03  
3.91000000       2.45800000E-03  
3.92000000       1.86000000E-03  
3.93000000       1.75700000E-03  
3.94000000       1.40800000E-03  
3.95000000       1.17200000E-03  
3.96000000       8.76900000E-04  
3.97000000       5.05500000E-04  
3.98000000       2.72700000E-04  
3.99000000       3.28500000E-05  
4.00000000       7.67900000E-05  
4.01000000       3.35700000E-05  
4.02000000       2.22400000E-05  
4.03000000       1.02700000E-05  
4.04000000       5.68600000E-06  
4.05000000       3.84500000E-06  
4.06000000       9.41200000E-06  
4.07000000       8.81800000E-07  
4.08000000       6.26300000E-06  
4.09000000       5.74500000E-06  
4.10000000       1.10100000E-06  
4.11000000       2.51600000E-06  
4.12000000       6.36400000E-07  
4.13000000       5.05900000E-07  
4.14000000       2.68900000E-06  
4.15000000       2.20800000E-05  
4.16000000       3.89400000E-05  
4.17000000       4.66600000E-05  
4.18000000       3.66800000E-05  
4.19000000       2.68600000E-05  
4.20000000       2.57000000E-07  
4.21000000       2.34700000E-07  
4.22000000       2.08900000E-07  
4.23000000       1.79600000E-07  
4.24000000       1.49100000E-07  
4.25000000       1.10600000E-06  
4.26000000       9.13600000E-08  
4.27000000       7.27100000E-07  
4.28000000       4.86200000E-07  
4.29000000       3.78200000E-07  
4.30000000       2.33500000E-08  
4.31000000       1.58000000E-08  
4.32000000       1.05400000E-08  
4.33000000       1.53200000E-07  
4.34000000       4.49300000E-09  
4.35000000       2.84500000E-09  
4.36000000       1.82700000E-09  
4.37000000       2.84100000E-08  
4.38000000       8.00300000E-10  
4.39000000       5.90500000E-10  
4.40000000       4.37500000E-10  
4.41000000       9.24600000E-09  
4.42000000       2.49700000E-10  
4.43000000       1.82600000E-10  
4.44000000       1.34500000E-10  
4.45000000       1.40800000E-09  
4.46000000       1.34300000E-09  
4.47000000       5.07100000E-11  
4.48000000       3.38200000E-11  
4.49000000       2.66100000E-11  
4.50000000       1.76700000E-11  
4.51000000       1.00800000E-11  
4.52000000       3.00700000E-10  
4.53000000       5.64400000E-12  
4.54000000       4.77700000E-12  
4.55000000       3.01300000E-12  
4.56000000       1.27900000E-07  
4.57000000       9.88900000E-08  
4.58000000       2.85600000E-07  
4.59000000       1.37700000E-07  
4.60000000       1.11500000E-07  
4.61000000       9.87200000E-08  
4.62000000       3.30300000E-07  
4.63000000       1.08800000E-07  
4.64000000       3.42300000E-07  
4.65000000       1.57400000E-07  
4.66000000       1.95000000E-07  
4.67000000       3.84400000E-07  
4.68000000       1.01300000E-07  
4.69000000       1.75000000E-07  
4.70000000       4.02300000E-07  
4.71000000       1.12600000E-09  
4.72000000       1.57800000E-09  
4.73000000       1.09700000E-09  
4.74000000       3.73600000E-10  
4.75000000       4.38400000E-09  
4.76000000       2.51100000E-09  
4.77000000       7.46300000E-10  
4.78000000       1.36400000E-10  
4.79000000       3.78900000E-10  
4.80000000       4.87600000E-09  
4.81000000       1.20300000E-10  
4.82000000       1.43000000E-10  
4.83000000       9.21700000E-13  
4.84000000       4.52500000E-11  
4.85000000       1.10200000E-09  
4.86000000       3.40400000E-09  
4.87000000       8.82200000E-10  
4.88000000       9.62600000E-12  
4.89000000       1.21000000E-09  
4.90000000       2.85000000E-09  
4.91000000       3.14300000E-13  
4.92000000       1.04100000E-10  
4.93000000       2.51300000E-09  
4.94000000       4.28800000E-09  
4.95000000       1.85600000E-09  
4.96000000       9.36600000E-09  
4.97000000       9.99300000E-09  
4.98000000       8.86900000E-09  
4.99000000       2.19300000E-08  
5.00000000       4.13000000E-08  
5.01000000       3.00300000E-08  
5.02000000       2.35700000E-08  
5.03000000       1.86300000E-08  
5.04000000       1.61000000E-08  
5.05000000       1.67400000E-08  
5.06000000       1.69300000E-08  
5.07000000       1.75100000E-08  
5.08000000       1.81200000E-08  
5.09000000       1.82200000E-08  
5.10000000       1.73300000E-08  
5.11000000       1.78100000E-08  
5.12000000       1.73700000E-08  
5.13000000       1.80000000E-08  
5.14000000       1.80400000E-08  
5.15000000       1.74200000E-08  
5.16000000       1.67600000E-08  
5.17000000       1.64300000E-08  
5.18000000       1.61900000E-08  
5.19000000       1.60300000E-08  
5.20000000       1.59400000E-08  
5.21000000       1.54700000E-08  
5.22000000       1.62000000E-08  
5.23000000       1.65600000E-08  
5.24000000       1.64700000E-08  
5.25000000       1.78800000E-08  
5.26000000       1.93600000E-08  
5.27000000       2.02700000E-08  
5.28000000       2.07800000E-08  
5.29000000       2.20500000E-08  
5.30000000       2.26900000E-08  
5.31000000       2.38000000E-08  
5.32000000       2.60000000E-08  
5.33000000       2.64100000E-08  
5.34000000       2.41200000E-08  
5.35000000       2.51600000E-08  
5.36000000       2.64000000E-08  
5.37000000       2.56300000E-08  
5.38000000       2.47700000E-08  
5.39000000       2.60200000E-08  
5.40000000       2.60700000E-08  
5.41000000       2.58800000E-08  
5.42000000       2.58100000E-08  
5.43000000       2.56600000E-08  
5.44000000       2.08700000E-08  
5.45000000       2.38300000E-08  
5.46000000       2.58900000E-08  
5.47000000       2.55200000E-08  
5.48000000       2.47200000E-08  
5.49000000       2.58500000E-08  
5.50000000       2.47500000E-08  
5.51000000       2.36400000E-08  
5.52000000       2.26800000E-08  
5.53000000       2.14600000E-08  
5.54000000       2.01100000E-08  
5.55000000       1.92800000E-08  
5.56000000       1.77600000E-08  
5.57000000       1.59000000E-08  
5.58000000       1.50000000E-08  
5.59000000       1.36200000E-08  
5.60000000       1.22900000E-08  
5.61000000       1.12200000E-08  
5.62000000       1.06800000E-08  
5.63000000       9.32300000E-09  
5.64000000       8.80300000E-09  
5.65000000       7.47700000E-09  
5.66000000       7.06700000E-09  
5.67000000       6.27100000E-09  
5.68000000       4.83100000E-09  
5.69000000       4.24900000E-09  
5.70000000       3.38400000E-09  
5.71000000       2.60200000E-09  
5.72000000       2.73500000E-09  
5.73000000       2.54100000E-09  
5.74000000       2.81400000E-09  
5.75000000       3.10400000E-09  
5.76000000       3.67800000E-09  
5.77000000       4.38200000E-09  
5.78000000       4.84600000E-09  
5.79000000       5.17700000E-09  
5.80000000       5.75400000E-09  
5.81000000       6.25300000E-09  
5.82000000       7.32700000E-09  
5.83000000       7.49800000E-09  
5.84000000       8.24600000E-09  
5.85000000       9.09200000E-09  
5.86000000       9.52400000E-09  
5.87000000       9.94100000E-09  
5.88000000       1.10900000E-08  
5.89000000       1.17000000E-08  
5.90000000       1.17600000E-08  
5.91000000       1.22100000E-08  
5.92000000       1.26300000E-08  
5.93000000       1.40800000E-08  
5.94000000       1.37600000E-08  
5.95000000       1.44400000E-08  
5.96000000       1.46200000E-08  
5.97000000       1.56500000E-08  
5.98000000       1.54900000E-08  
5.99000000       1.56300000E-08  
6.00000000       1.65200000E-08  
6.01000000       1.58900000E-08  
6.02000000       1.59600000E-08  
6.03000000       1.58500000E-08  
6.04000000       1.55600000E-08  
6.05000000       1.63200000E-08  
6.06000000       1.47800000E-08  
6.07000000       1.45500000E-08  
6.08000000       1.45100000E-08  
6.09000000       1.43700000E-08  
6.10000000       1.47100000E-08  
6.11000000       1.45300000E-08  
6.12000000       1.46800000E-08  
6.13000000       1.52600000E-08  
6.14000000       1.66400000E-08  
6.15000000       1.79400000E-08  
6.16000000       2.07400000E-08  
6.17000000       2.01900000E-08  
6.18000000       2.09100000E-08  
6.19000000       2.39000000E-08  
6.20000000       2.33800000E-08  
6.21000000       3.25600000E-08  
6.22000000       3.57800000E-08  
6.23000000       4.11200000E-08  
6.24000000       5.79500000E-08  
6.25000000       7.89500000E-08  
6.26000000       1.07900000E-07  
6.27000000       1.38500000E-07  
6.28000000       1.73600000E-07  
6.29000000       2.02900000E-07  
6.30000000       2.20300000E-07  
6.31000000       1.08400000E-07  
6.32000000       3.13700000E-07  
6.33000000       2.95000000E-07  
6.34000000       2.59000000E-07  
6.35000000       2.41300000E-07  
6.36000000       2.51500000E-08  
6.37000000       2.03800000E-08  
6.38000000       3.34900000E-08  
6.39000000       1.87100000E-07  
6.40000000       1.68100000E-07  
6.41000000       3.33900000E-07  
6.42000000       3.21000000E-07  
6.43000000       2.28700000E-07  
6.44000000       2.94800000E-07  
6.45000000       2.88200000E-07  
6.46000000       2.24100000E-07  
6.47000000       2.75400000E-07  
6.48000000       9.92400000E-08  
6.49000000       2.73500000E-07  
6.50000000       2.37600000E-07  
