# W2 filter 
# Wavelength [microns]  |  Transmission efficiency
2.53000000       3.81500000E-09  
2.54000000       1.45400000E-06  
2.55000000       1.95200000E-07  
2.56000000       4.02100000E-07  
2.57000000       5.97800000E-07  
2.58000000       4.58100000E-07  
2.59000000       1.59500000E-06  
2.60000000       2.97400000E-07  
2.61000000       1.15600000E-07  
2.62000000       1.22800000E-07  
2.63000000       9.67900000E-08  
2.64000000       1.38700000E-11  
2.65000000       7.73900000E-12  
2.66000000       4.18000000E-08  
2.67000000       7.55400000E-08  
2.68000000       9.13100000E-08  
2.69000000       4.34400000E-08  
2.70000000       1.12900000E-07  
2.71000000       8.13300000E-08  
2.72000000       2.60800000E-07  
2.73000000       7.12200000E-08  
2.74000000       6.29900000E-08  
2.75000000       4.36600000E-08  
2.76000000       3.31200000E-08  
2.77000000       6.05400000E-08  
2.78000000       3.12800000E-08  
2.79000000       7.59200000E-08  
2.80000000       3.75000000E-08  
2.81000000       3.86500000E-08  
2.82000000       3.72700000E-08  
2.83000000       3.87500000E-08  
2.84000000       4.46400000E-08  
2.85000000       4.46500000E-08  
2.86000000       1.06100000E-07  
2.87000000       3.69700000E-08  
2.88000000       3.17400000E-08  
2.89000000       1.89300000E-08  
2.90000000       3.16900000E-08  
2.91000000       1.71300000E-08  
2.92000000       1.79200000E-08  
2.93000000       1.69300000E-08  
2.94000000       6.87400000E-08  
2.95000000       6.54800000E-09  
2.96000000       4.52000000E-08  
2.97000000       5.66200000E-09  
2.98000000       2.81100000E-09  
2.99000000       1.75800000E-09  
3.00000000       9.50100000E-10  
3.01000000       2.19700000E-17  
3.02000000       1.07200000E-09  
3.03000000       1.62300000E-09  
3.04000000       1.26000000E-09  
3.05000000       1.75600000E-09  
3.06000000       1.07700000E-09  
3.07000000       1.21100000E-09  
3.08000000       1.13800000E-08  
3.09000000       3.87700000E-10  
3.10000000       1.03700000E-08  
3.11000000       8.53200000E-10  
3.12000000       1.04500000E-10  
3.13000000       6.19500000E-15  
3.14000000       7.01400000E-18  
3.15000000       1.31500000E-14  
3.16000000       1.72200000E-14  
3.17000000       4.59300000E-10  
3.18000000       3.21700000E-14  
3.19000000       5.84100000E-17  
3.20000000       1.59200000E-14  
3.21000000       3.20400000E-09  
3.22000000       4.09100000E-09  
3.23000000       5.90300000E-09  
3.24000000       2.09500000E-08  
3.25000000       6.13400000E-09  
3.26000000       6.73300000E-09  
3.27000000       5.47600000E-09  
3.28000000       4.99400000E-09  
3.29000000       5.97300000E-09  
3.30000000       2.54400000E-09  
3.31000000       1.26800000E-13  
3.32000000       1.42800000E-13  
3.33000000       3.04000000E-13  
3.34000000       4.68100000E-13  
3.35000000       4.73600000E-13  
3.36000000       6.34400000E-13  
3.37000000       5.57000000E-13  
3.38000000       9.50400000E-13  
3.39000000       6.95600000E-13  
3.40000000       1.01900000E-12  
3.41000000       8.62700000E-13  
3.42000000       1.19900000E-12  
3.43000000       1.35300000E-08  
3.44000000       1.35000000E-08  
3.45000000       4.55200000E-08  
3.46000000       6.34300000E-08  
3.47000000       8.75300000E-08  
3.48000000       7.25800000E-08  
3.49000000       4.31200000E-07  
3.50000000       1.07000000E-07  
3.51000000       1.38800000E-07  
3.52000000       1.24800000E-07  
3.53000000       1.35600000E-07  
3.54000000       1.17600000E-07  
3.55000000       2.02500000E-07  
3.56000000       3.21300000E-07  
3.57000000       2.01000000E-06  
3.58000000       5.58300000E-07  
3.59000000       8.22400000E-07  
3.60000000       6.56200000E-07  
3.61000000       1.13300000E-06  
3.62000000       1.17000000E-06  
3.63000000       1.37100000E-06  
3.64000000       1.06700000E-06  
3.65000000       1.07000000E-06  
3.66000000       6.88800000E-07  
3.67000000       1.19200000E-06  
3.68000000       4.19800000E-10  
3.69000000       1.14800000E-08  
3.70000000       1.13700000E-08  
3.71000000       1.43800000E-08  
3.72000000       2.67300000E-08  
3.73000000       3.36900000E-08  
3.74000000       4.70900000E-08  
3.75000000       1.17000000E-07  
3.76000000       8.64900000E-08  
3.77000000       1.24000000E-07  
3.78000000       3.03000000E-07  
3.79000000       3.58300000E-07  
3.80000000       1.29900000E-06  
3.81000000       2.10900000E-06  
3.82000000       3.55700000E-06  
3.83000000       4.67000000E-06  
3.84000000       6.96300000E-06  
3.85000000       1.16000000E-05  
3.86000000       1.83300000E-05  
3.87000000       2.13000000E-05  
3.88000000       4.55900000E-05  
3.89000000       9.74100000E-05  
3.90000000       1.38700000E-04  
3.91000000       2.00000000E-04  
3.92000000       3.72800000E-04  
3.93000000       5.06200000E-04  
3.94000000       3.91900000E-04  
3.95000000       1.16300000E-03  
3.96000000       8.18800000E-03  
3.97000000       1.01200000E-02  
3.98000000       1.27600000E-02  
3.99000000       1.63800000E-02  
4.00000000       2.13700000E-02  
4.01000000       3.00500000E-02  
4.02000000       4.40200000E-02  
4.03000000       6.51700000E-02  
4.04000000       9.53100000E-02  
4.05000000       1.35700000E-01  
4.06000000       1.93700000E-01  
4.07000000       2.63600000E-01  
4.08000000       3.40700000E-01  
4.09000000       4.22700000E-01  
4.10000000       5.02800000E-01  
4.11000000       5.72900000E-01  
4.12000000       6.30000000E-01  
4.13000000       6.76000000E-01  
4.14000000       7.09000000E-01  
4.15000000       7.28000000E-01  
4.16000000       7.41000000E-01  
4.17000000       7.48000000E-01  
4.18000000       7.50000000E-01  
4.19000000       7.48000000E-01  
4.20000000       7.45000000E-01  
4.21000000       7.39000000E-01  
4.22000000       7.32000000E-01  
4.23000000       7.25000000E-01  
4.24000000       7.24000000E-01  
4.25000000       7.25000000E-01  
4.26000000       7.24000000E-01  
4.27000000       7.20000000E-01  
4.28000000       7.18000000E-01  
4.29000000       7.19000000E-01  
4.30000000       7.23000000E-01  
4.31000000       7.27000000E-01  
4.32000000       7.31000000E-01  
4.33000000       7.33000000E-01  
4.34000000       7.34000000E-01  
4.35000000       7.33000000E-01  
4.36000000       7.29000000E-01  
4.37000000       7.25000000E-01  
4.38000000       7.19000000E-01  
4.39000000       7.11000000E-01  
4.40000000       7.04000000E-01  
4.41000000       6.98000000E-01  
4.42000000       6.92000000E-01  
4.43000000       6.88000000E-01  
4.44000000       6.83000000E-01  
4.45000000       6.80000000E-01  
4.46000000       6.79000000E-01  
4.47000000       6.81000000E-01  
4.48000000       6.86000000E-01  
4.49000000       6.93000000E-01  
4.50000000       7.01000000E-01  
4.51000000       7.11000000E-01  
4.52000000       7.19000000E-01  
4.53000000       7.28000000E-01  
4.54000000       7.35000000E-01  
4.55000000       7.40000000E-01  
4.56000000       7.44000000E-01  
4.57000000       7.46000000E-01  
4.58000000       7.47000000E-01  
4.59000000       7.45000000E-01  
4.60000000       7.42000000E-01  
4.61000000       7.38000000E-01  
4.62000000       7.32000000E-01  
4.63000000       7.26000000E-01  
4.64000000       7.19000000E-01  
4.65000000       7.12000000E-01  
4.66000000       7.05000000E-01  
4.67000000       7.01000000E-01  
4.68000000       6.97000000E-01  
4.69000000       6.95000000E-01  
4.70000000       6.93000000E-01  
4.71000000       6.94000000E-01  
4.72000000       6.96000000E-01  
4.73000000       6.99000000E-01  
4.74000000       7.05000000E-01  
4.75000000       7.09000000E-01  
4.76000000       7.15000000E-01  
4.77000000       7.19000000E-01  
4.78000000       7.22000000E-01  
4.79000000       7.22000000E-01  
4.80000000       7.22000000E-01  
4.81000000       7.20000000E-01  
4.82000000       7.18000000E-01  
4.83000000       7.17000000E-01  
4.84000000       7.15000000E-01  
4.85000000       7.14000000E-01  
4.86000000       7.13000000E-01  
4.87000000       7.12000000E-01  
4.88000000       7.12000000E-01  
4.89000000       7.12000000E-01  
4.90000000       7.12000000E-01  
4.91000000       7.11000000E-01  
4.92000000       7.11000000E-01  
4.93000000       7.10000000E-01  
4.94000000       7.08000000E-01  
4.95000000       7.05000000E-01  
4.96000000       7.02000000E-01  
4.97000000       6.98000000E-01  
4.98000000       6.93000000E-01  
4.99000000       6.88000000E-01  
5.00000000       6.80000000E-01  
5.01000000       6.73000000E-01  
5.02000000       6.64000000E-01  
5.03000000       6.55000000E-01  
5.04000000       6.46000000E-01  
5.05000000       6.37000000E-01  
5.06000000       6.28000000E-01  
5.07000000       6.19000000E-01  
5.08000000       6.11000000E-01  
5.09000000       6.03000000E-01  
5.10000000       5.95000000E-01  
5.11000000       5.85000000E-01  
5.12000000       5.75000000E-01  
5.13000000       5.60000000E-01  
5.14000000       5.44000000E-01  
5.15000000       5.19000000E-01  
5.16000000       4.93000000E-01  
5.17000000       4.58000000E-01  
5.18000000       4.19000000E-01  
5.19000000       3.75000000E-01  
5.20000000       3.26900000E-01  
5.21000000       2.79900000E-01  
5.22000000       2.32800000E-01  
5.23000000       1.89800000E-01  
5.24000000       1.50700000E-01  
5.25000000       1.16700000E-01  
5.26000000       9.01400000E-02  
5.27000000       6.59200000E-02  
5.28000000       5.03400000E-02  
5.29000000       3.52100000E-02  
5.30000000       2.69100000E-02  
5.31000000       1.86600000E-02  
5.32000000       1.38700000E-02  
5.33000000       9.65200000E-03  
5.34000000       6.84000000E-03  
5.35000000       4.73500000E-03  
5.36000000       2.64200000E-03  
5.37000000       1.98700000E-03  
5.38000000       1.48100000E-03  
5.39000000       1.12600000E-03  
5.40000000       8.35700000E-04  
5.41000000       6.29500000E-04  
5.42000000       4.77100000E-04  
5.43000000       3.53800000E-04  
5.44000000       2.51600000E-04  
5.45000000       1.98800000E-04  
5.46000000       1.38100000E-04  
5.47000000       1.78300000E-04  
5.48000000       2.01400000E-04  
5.49000000       1.99900000E-04  
5.50000000       1.65000000E-04  
5.51000000       1.43000000E-04  
5.52000000       1.23900000E-04  
5.53000000       9.50200000E-05  
5.54000000       8.42400000E-05  
5.55000000       6.57400000E-05  
5.56000000       3.81000000E-05  
5.57000000       3.60500000E-05  
5.58000000       2.99700000E-05  
5.59000000       2.23500000E-05  
5.60000000       1.74300000E-05  
5.61000000       8.03200000E-06  
5.62000000       1.14400000E-05  
5.63000000       1.10400000E-05  
5.64000000       7.08400000E-06  
5.65000000       5.87600000E-06  
5.66000000       4.44600000E-06  
5.67000000       1.85300000E-06  
5.68000000       5.07200000E-08  
5.69000000       1.16800000E-07  
5.70000000       1.01600000E-07  
5.71000000       1.63000000E-05  
5.72000000       3.00000000E-05  
5.73000000       1.98600000E-08  
5.74000000       2.19600000E-08  
5.75000000       8.40100000E-08  
5.76000000       1.19500000E-07  
5.77000000       2.68000000E-05  
5.78000000       9.12300000E-09  
5.79000000       3.67000000E-05  
5.80000000       3.17000000E-05  
5.81000000       2.85000000E-05  
5.82000000       1.73300000E-08  
5.83000000       2.67000000E-05  
5.84000000       3.26000000E-05  
5.85000000       1.69100000E-08  
5.86000000       3.22000000E-05  
5.87000000       2.45000000E-05  
5.88000000       1.72000000E-05  
5.89000000       7.73000000E-06  
5.90000000       5.87000000E-06  
5.91000000       4.46000000E-06  
5.92000000       3.19000000E-06  
5.93000000       2.54000000E-06  
5.94000000       2.27000000E-06  
5.95000000       2.09000000E-06  
5.96000000       1.90000000E-06  
5.97000000       9.70200000E-07  
5.98000000       7.50000000E-07  
5.99000000       6.64400000E-07  
6.00000000       5.95400000E-07  
6.01000000       6.48900000E-07  
6.02000000       5.37000000E-07  
6.03000000       4.28800000E-07  
6.04000000       3.30900000E-07  
6.05000000       2.65000000E-07  
6.06000000       2.28600000E-07  
6.07000000       2.16600000E-07  
6.08000000       2.12800000E-07  
6.09000000       2.25800000E-07  
6.10000000       2.32500000E-07  
6.11000000       2.46600000E-07  
6.12000000       2.55600000E-07  
6.13000000       2.55600000E-07  
6.14000000       2.54500000E-07  
6.15000000       2.39900000E-07  
6.16000000       2.42500000E-07  
6.17000000       2.27100000E-07  
6.18000000       2.02000000E-07  
6.19000000       1.89000000E-07  
6.20000000       1.84100000E-07  
6.21000000       1.73100000E-07  
6.22000000       1.76000000E-07  
6.23000000       1.87600000E-07  
6.24000000       1.97500000E-07  
6.25000000       2.04100000E-07  
6.26000000       2.36200000E-07  
6.27000000       2.25100000E-07  
6.28000000       2.34900000E-07  
6.29000000       2.19800000E-07  
6.30000000       2.07000000E-07  
6.31000000       1.94600000E-07  
6.32000000       1.80800000E-07  
6.33000000       1.89000000E-07  
6.34000000       2.08800000E-07  
6.35000000       2.20700000E-07  
6.36000000       2.21900000E-07  
6.37000000       2.09700000E-07  
6.38000000       2.27300000E-07  
6.39000000       2.30400000E-07  
6.40000000       2.25200000E-07  
6.41000000       2.23700000E-07  
6.42000000       2.28400000E-07  
6.43000000       2.28200000E-07  
6.44000000       2.23600000E-07  
6.45000000       2.36100000E-07  
6.46000000       2.24200000E-07  
6.47000000       2.19400000E-07  
6.48000000       2.13700000E-07  
6.49000000       2.11400000E-07  
6.50000000       2.06300000E-07  
6.51000000       2.01100000E-07  
6.52000000       1.98200000E-07  
6.53000000       2.01000000E-07  
6.54000000       1.93600000E-07  
6.55000000       1.80500000E-07  
6.56000000       1.67900000E-07  
6.57000000       1.53300000E-07  
6.58000000       1.42500000E-07  
6.59000000       1.33500000E-07  
6.60000000       1.21800000E-07  
6.61000000       1.12200000E-07  
6.62000000       1.07600000E-07  
6.63000000       1.00200000E-07  
6.64000000       1.07700000E-07  
6.65000000       1.13800000E-07  
6.66000000       1.23200000E-07  
6.67000000       1.32300000E-07  
6.68000000       1.37100000E-07  
6.69000000       1.45400000E-07  
6.70000000       1.45100000E-07  
6.71000000       1.43200000E-07  
6.72000000       1.15100000E-07  
6.73000000       1.40000000E-07  
6.74000000       1.38400000E-07  
6.75000000       1.37400000E-07  
6.76000000       1.34300000E-07  
6.77000000       1.30600000E-07  
6.78000000       1.03500000E-07  
6.79000000       1.05600000E-07  
6.80000000       1.17200000E-07  
6.81000000       1.14800000E-07  
6.82000000       1.00900000E-07  
6.83000000       9.14800000E-08  
6.84000000       9.70700000E-08  
6.85000000       9.04900000E-08  
6.86000000       8.16900000E-08  
6.87000000       7.70500000E-08  
6.88000000       7.57300000E-08  
6.89000000       7.85300000E-08  
6.90000000       8.10700000E-08  
6.91000000       8.16700000E-08  
6.92000000       7.80000000E-08  
6.93000000       7.86300000E-08  
6.94000000       8.00100000E-08  
6.95000000       7.64600000E-08  
6.96000000       8.19000000E-08  
6.97000000       8.51500000E-08  
6.98000000       9.89400000E-08  
6.99000000       1.00900000E-07  
7.00000000       8.99800000E-08  
7.01000000       9.32400000E-08  
7.02000000       8.87600000E-08  
7.03000000       1.02600000E-07  
7.04000000       9.84800000E-08  
7.05000000       7.75000000E-08  
7.06000000       7.82600000E-08  
7.07000000       9.17400000E-08  
7.08000000       9.07300000E-08  
7.09000000       7.08900000E-08  
7.10000000       8.78900000E-08  
7.11000000       8.62800000E-08  
7.12000000       8.46000000E-08  
7.13000000       8.16000000E-08  
7.14000000       5.71500000E-08  
7.15000000       7.66800000E-08  
7.16000000       7.42800000E-08  
7.17000000       7.41700000E-08  
7.18000000       6.22400000E-08  
7.19000000       6.23800000E-08  
7.20000000       6.36800000E-08  
7.21000000       6.29200000E-08  
7.22000000       5.75900000E-08  
7.23000000       5.17300000E-08  
7.24000000       5.64200000E-08  
7.25000000       5.82600000E-08  
7.26000000       5.75100000E-08  
7.27000000       5.71400000E-08  
7.28000000       5.82100000E-08  
7.29000000       6.17000000E-08  
7.30000000       6.40700000E-08  
7.31000000       6.58000000E-08  
7.32000000       6.83400000E-08  
7.33000000       6.64700000E-08  
7.34000000       6.35100000E-08  
7.35000000       8.18800000E-08  
7.36000000       8.19800000E-08  
7.37000000       8.26800000E-08  
7.38000000       6.87700000E-08  
7.39000000       8.33900000E-08  
7.40000000       8.23700000E-08  
7.41000000       5.35200000E-08  
7.42000000       7.11100000E-08  
7.43000000       7.32700000E-08  
7.44000000       7.15100000E-08  
7.45000000       6.23000000E-08  
7.46000000       6.53700000E-08  
7.47000000       6.82600000E-08  
7.48000000       6.41600000E-08  
7.49000000       5.96300000E-08  
7.50000000       7.33400000E-08  
7.51000000       7.20200000E-08  
7.52000000       7.15500000E-08  
7.53000000       5.89600000E-08  
7.54000000       5.47300000E-08  
7.55000000       6.83300000E-08  
7.56000000       5.56300000E-08  
7.57000000       5.53000000E-08  
7.58000000       4.99800000E-08  
7.59000000       5.19300000E-08  
7.60000000       5.19200000E-08  
7.61000000       4.80000000E-08  
7.62000000       4.15600000E-08  
7.63000000       4.37900000E-08  
7.64000000       4.52000000E-08  
7.65000000       4.33000000E-08  
7.66000000       4.18800000E-08  
7.67000000       4.16200000E-08  
7.68000000       4.19800000E-08  
7.69000000       4.01300000E-08  
7.70000000       3.63600000E-08  
7.71000000       3.29300000E-08  
7.72000000       5.06300000E-08  
7.73000000       5.15200000E-08  
7.74000000       5.26500000E-08  
7.75000000       5.37800000E-08  
7.76000000       5.49500000E-08  
7.77000000       4.44100000E-08  
7.78000000       4.36300000E-08  
7.79000000       5.94900000E-08  
7.80000000       4.82300000E-08  
7.81000000       5.04500000E-08  
7.82000000       5.31200000E-08  
7.83000000       5.47100000E-08  
7.84000000       5.33500000E-08  
7.85000000       5.07200000E-08  
7.86000000       6.13100000E-08  
7.87000000       6.12600000E-08  
7.88000000       5.14700000E-08  
7.89000000       5.06500000E-08  
7.90000000       4.44400000E-08  
7.91000000       5.84000000E-08  
7.92000000       5.67000000E-08  
7.93000000       5.50700000E-08  
7.94000000       4.32200000E-08  
7.95000000       4.40600000E-08  
7.96000000       4.24300000E-08  
7.97000000       3.65600000E-08  
7.98000000       3.88000000E-08  
7.99000000       4.11500000E-08  
8.00000000       4.21300000E-08  
