# W4 filter 
# Wavelength [microns]  |  Transmission efficiency
2.53000000       7.00300000E-17  
2.54000000       1.52200000E-16  
2.55000000       1.84400000E-13  
2.56000000       9.99700000E-14  
2.57000000       7.62500000E-15  
2.58000000       3.11800000E-33  
2.59000000       1.46200000E-42  
2.60000000       5.62300000E-31  
2.61000000       3.09800000E-31  
2.62000000       3.17600000E-31  
2.63000000       2.18000000E-29  
2.64000000       1.78700000E-31  
2.65000000       2.70000000E-29  
2.66000000       2.24700000E-36  
2.67000000       2.35900000E-15  
2.68000000       3.20700000E-15  
2.69000000       1.19900000E-14  
2.70000000       1.20200000E-14  
2.71000000       8.76500000E-15  
2.72000000       1.95200000E-14  
2.73000000       1.03500000E-13  
2.74000000       7.12600000E-15  
2.75000000       1.39300000E-15  
2.76000000       4.98500000E-25  
2.77000000       5.09100000E-16  
2.78000000       9.94400000E-15  
2.79000000       8.07000000E-16  
2.80000000       1.14300000E-15  
2.81000000       2.04000000E-16  
2.82000000       5.71900000E-15  
2.83000000       5.99200000E-15  
2.84000000       4.62700000E-14  
2.85000000       1.74100000E-14  
2.86000000       5.68200000E-29  
2.87000000       3.79700000E-29  
2.88000000       6.83900000E-32  
2.89000000       2.24000000E-15  
2.90000000       1.12700000E-14  
2.91000000       8.23300000E-14  
2.92000000       1.13500000E-15  
2.93000000       7.36400000E-14  
2.94000000       6.40700000E-14  
2.95000000       9.98000000E-14  
2.96000000       1.15300000E-14  
2.97000000       7.82300000E-15  
2.98000000       7.04200000E-16  
2.99000000       7.27100000E-15  
3.00000000       4.59200000E-14  
3.01000000       1.05200000E-14  
3.02000000       2.54400000E-13  
3.03000000       1.16900000E-13  
3.04000000       1.28700000E-14  
3.05000000       6.28800000E-14  
3.06000000       4.58800000E-34  
3.07000000       7.79900000E-27  
3.08000000       2.49200000E-25  
3.09000000       1.71100000E-25  
3.10000000       7.61700000E-30  
3.11000000       4.47200000E-28  
3.12000000       1.12900000E-29  
3.13000000       5.43000000E-37  
3.14000000       1.11900000E-30  
3.15000000       8.33400000E-16  
3.16000000       1.48100000E-14  
3.17000000       3.62300000E-14  
3.18000000       3.96200000E-14  
3.19000000       3.18400000E-15  
3.20000000       4.85000000E-15  
3.21000000       6.31700000E-16  
3.22000000       1.50800000E-13  
3.23000000       1.13100000E-14  
3.24000000       1.41800000E-13  
3.25000000       3.20700000E-13  
3.26000000       1.92300000E-14  
3.27000000       7.16900000E-14  
3.28000000       1.06500000E-14  
3.29000000       1.64300000E-14  
3.30000000       2.74500000E-13  
3.31000000       8.68300000E-15  
3.32000000       1.32700000E-13  
3.33000000       7.67700000E-30  
3.34000000       1.09200000E-34  
3.35000000       2.18400000E-32  
3.36000000       1.88600000E-40  
3.37000000       2.68500000E-29  
3.38000000       1.03000000E-36  
3.39000000       4.03100000E-38  
3.40000000       3.13500000E-35  
3.41000000       9.47500000E-33  
3.42000000       3.35600000E-34  
3.43000000       1.00000000E-30  
3.44000000       9.76200000E-16  
3.45000000       3.06100000E-15  
3.46000000       8.83500000E-16  
3.47000000       5.74000000E-16  
3.48000000       5.49700000E-27  
3.49000000       2.26100000E-33  
3.50000000       3.02800000E-28  
3.51000000       5.41200000E-27  
3.52000000       1.67200000E-29  
3.53000000       8.00100000E-24  
3.54000000       1.51700000E-30  
3.55000000       5.46300000E-26  
3.56000000       1.27900000E-32  
3.57000000       1.35400000E-15  
3.58000000       3.86600000E-14  
3.59000000       3.60000000E-15  
3.60000000       1.94000000E-13  
3.61000000       3.37000000E-14  
3.62000000       8.35300000E-14  
3.63000000       4.40100000E-14  
3.64000000       2.86200000E-14  
3.65000000       1.12900000E-13  
3.66000000       3.56300000E-14  
3.67000000       6.79300000E-14  
3.68000000       3.57100000E-13  
3.69000000       6.57700000E-14  
3.70000000       3.80300000E-15  
3.71000000       2.19500000E-14  
3.72000000       8.08300000E-15  
3.73000000       3.63900000E-14  
3.74000000       2.00400000E-14  
3.75000000       7.98000000E-15  
3.76000000       7.01400000E-15  
3.77000000       3.61200000E-14  
3.78000000       1.26000000E-14  
3.79000000       4.07700000E-14  
3.80000000       2.72100000E-13  
3.81000000       9.82500000E-14  
3.82000000       8.63500000E-14  
3.83000000       4.49500000E-15  
3.84000000       1.04100000E-13  
3.85000000       2.35000000E-13  
3.86000000       4.29900000E-14  
3.87000000       9.74200000E-14  
3.88000000       2.21200000E-13  
3.89000000       7.68400000E-14  
3.90000000       1.50600000E-13  
3.91000000       6.29900000E-14  
3.92000000       8.50800000E-14  
3.93000000       8.04000000E-14  
3.94000000       2.33300000E-13  
3.95000000       6.67100000E-14  
3.96000000       1.14300000E-13  
3.97000000       8.49600000E-14  
3.98000000       4.52100000E-14  
3.99000000       1.23000000E-13  
4.00000000       2.35500000E-26  
4.01000000       4.85100000E-33  
4.02000000       6.73200000E-31  
4.03000000       1.56700000E-36  
4.04000000       1.86900000E-25  
4.05000000       1.06200000E-36  
4.06000000       3.26700000E-25  
4.07000000       1.18000000E-30  
4.08000000       1.67500000E-33  
4.09000000       6.41800000E-30  
4.10000000       9.45100000E-30  
4.11000000       8.34300000E-32  
4.12000000       3.18800000E-13  
4.13000000       2.32100000E-14  
4.14000000       5.44400000E-13  
4.15000000       1.37400000E-14  
4.16000000       3.26300000E-13  
4.17000000       7.63100000E-13  
4.18000000       1.42800000E-12  
4.19000000       1.39000000E-12  
4.20000000       3.02400000E-14  
4.21000000       3.25800000E-14  
4.22000000       5.38900000E-13  
4.23000000       1.20700000E-30  
4.24000000       1.86700000E-33  
4.25000000       1.62200000E-28  
4.26000000       6.21500000E-28  
4.27000000       2.79400000E-26  
4.28000000       1.46700000E-30  
4.29000000       1.38700000E-27  
4.30000000       2.03500000E-28  
4.31000000       5.90200000E-25  
4.32000000       1.20000000E-27  
4.33000000       2.15200000E-36  
4.34000000       1.41400000E-36  
4.35000000       8.04600000E-14  
4.36000000       1.82200000E-13  
4.37000000       5.06300000E-13  
4.38000000       3.47300000E-14  
4.39000000       3.06500000E-13  
4.40000000       3.93600000E-13  
4.41000000       1.18700000E-13  
4.42000000       1.03400000E-12  
4.43000000       5.29500000E-14  
4.44000000       2.86700000E-13  
4.45000000       3.80300000E-13  
4.46000000       1.65700000E-13  
4.47000000       1.10500000E-13  
4.48000000       3.28300000E-14  
4.49000000       6.24800000E-14  
4.50000000       5.16700000E-14  
4.51000000       2.98500000E-14  
4.52000000       6.42000000E-15  
4.53000000       4.06300000E-29  
4.54000000       1.16300000E-32  
4.55000000       1.72300000E-15  
4.56000000       5.46700000E-14  
4.57000000       1.95100000E-13  
4.58000000       2.22200000E-13  
4.59000000       2.16700000E-13  
4.60000000       4.68200000E-13  
4.61000000       4.24900000E-13  
4.62000000       1.31600000E-12  
4.63000000       4.46600000E-13  
4.64000000       1.21200000E-12  
4.65000000       9.13000000E-14  
4.66000000       9.38000000E-15  
4.67000000       9.55200000E-14  
4.68000000       5.17400000E-13  
4.69000000       4.06600000E-13  
4.70000000       5.19000000E-13  
4.71000000       4.06400000E-13  
4.72000000       1.70900000E-13  
4.73000000       1.87700000E-13  
4.74000000       5.08100000E-14  
4.75000000       6.98800000E-14  
4.76000000       3.16100000E-12  
4.77000000       4.61800000E-14  
4.78000000       6.91600000E-14  
4.79000000       8.40400000E-14  
4.80000000       7.26500000E-14  
4.81000000       5.17500000E-14  
4.82000000       1.71400000E-13  
4.83000000       5.21300000E-13  
4.84000000       2.21100000E-14  
4.85000000       3.92000000E-12  
4.86000000       3.51100000E-12  
4.87000000       3.28400000E-12  
4.88000000       5.00600000E-12  
4.89000000       3.83600000E-13  
4.90000000       6.56700000E-14  
4.91000000       1.05000000E-13  
4.92000000       9.77100000E-14  
4.93000000       4.55600000E-13  
4.94000000       2.78200000E-13  
4.95000000       7.55000000E-12  
4.96000000       7.49900000E-13  
4.97000000       2.01700000E-11  
4.98000000       1.22400000E-11  
4.99000000       6.81800000E-12  
5.00000000       1.34800000E-11  
5.01000000       4.33000000E-09  
5.02000000       3.09000000E-09  
5.03000000       5.48900000E-09  
5.04000000       5.37200000E-09  
5.05000000       8.35200000E-09  
5.06000000       1.03400000E-08  
5.07000000       9.64900000E-09  
5.08000000       1.20500000E-08  
5.09000000       1.27800000E-08  
5.10000000       1.77200000E-08  
5.11000000       1.84000000E-08  
5.12000000       1.85900000E-08  
5.13000000       2.04200000E-08  
5.14000000       1.62200000E-08  
5.15000000       2.05100000E-08  
5.16000000       1.95000000E-08  
5.17000000       1.42900000E-08  
5.18000000       1.40400000E-08  
5.19000000       1.89500000E-08  
5.20000000       1.77700000E-08  
5.21000000       1.77400000E-08  
5.22000000       1.19900000E-08  
5.23000000       1.49000000E-08  
5.24000000       1.08200000E-08  
5.25000000       1.02500000E-08  
5.26000000       1.04100000E-08  
5.27000000       9.06400000E-09  
5.28000000       9.63800000E-09  
5.29000000       5.34800000E-09  
5.30000000       5.43200000E-09  
5.31000000       2.63600000E-09  
5.32000000       3.68700000E-09  
5.33000000       5.26300000E-09  
5.34000000       7.01800000E-09  
5.35000000       8.59100000E-09  
5.36000000       7.16700000E-09  
5.37000000       1.20200000E-08  
5.38000000       1.06400000E-08  
5.39000000       1.28600000E-08  
5.40000000       1.77500000E-08  
5.41000000       1.98700000E-08  
5.42000000       2.15800000E-08  
5.43000000       2.24100000E-08  
5.44000000       2.75800000E-08  
5.45000000       2.73600000E-08  
5.46000000       3.10200000E-08  
5.47000000       3.64200000E-08  
5.48000000       3.92200000E-08  
5.49000000       3.88700000E-08  
5.50000000       4.01400000E-08  
5.51000000       3.95800000E-08  
5.52000000       4.11200000E-08  
5.53000000       4.17700000E-08  
5.54000000       4.19900000E-08  
5.55000000       4.12200000E-08  
5.56000000       3.95000000E-08  
5.57000000       3.91700000E-08  
5.58000000       3.76700000E-08  
5.59000000       3.56000000E-08  
5.60000000       3.18700000E-08  
5.61000000       2.81700000E-08  
5.62000000       2.42700000E-08  
5.63000000       2.09300000E-08  
5.64000000       1.97200000E-08  
5.65000000       2.13400000E-08  
5.66000000       2.22600000E-08  
5.67000000       2.31500000E-08  
5.68000000       2.36700000E-08  
5.69000000       3.26600000E-08  
5.70000000       4.69100000E-08  
5.71000000       6.09100000E-08  
5.72000000       7.60600000E-08  
5.73000000       9.47100000E-08  
5.74000000       1.11300000E-07  
5.75000000       1.40900000E-07  
5.76000000       1.59400000E-07  
5.77000000       1.88000000E-07  
5.78000000       2.11800000E-07  
5.79000000       2.24800000E-07  
5.80000000       2.44900000E-07  
5.81000000       2.74300000E-07  
5.82000000       2.95400000E-07  
5.83000000       3.11900000E-07  
5.84000000       3.14000000E-07  
5.85000000       3.29900000E-07  
5.86000000       3.28900000E-07  
5.87000000       3.26000000E-07  
5.88000000       3.33100000E-07  
5.89000000       3.57200000E-07  
5.90000000       3.42700000E-07  
5.91000000       3.29500000E-07  
5.92000000       3.12900000E-07  
5.93000000       3.04700000E-07  
5.94000000       2.91600000E-07  
5.95000000       2.82300000E-07  
5.96000000       2.66000000E-07  
5.97000000       2.43900000E-07  
5.98000000       2.22700000E-07  
5.99000000       2.03000000E-07  
6.00000000       1.93000000E-07  
6.01000000       1.74800000E-07  
6.02000000       1.56800000E-07  
6.03000000       1.39600000E-07  
6.04000000       1.20500000E-07  
6.05000000       1.03000000E-07  
6.06000000       8.36700000E-08  
6.07000000       7.46800000E-08  
6.08000000       6.43200000E-08  
6.09000000       5.26100000E-08  
6.10000000       4.28100000E-08  
6.11000000       3.33600000E-08  
6.12000000       3.15900000E-08  
6.13000000       3.52700000E-08  
6.14000000       4.12800000E-08  
6.15000000       4.97700000E-08  
6.16000000       5.96900000E-08  
6.17000000       7.21100000E-08  
6.18000000       1.06800000E-07  
6.19000000       1.55700000E-07  
6.20000000       2.28300000E-07  
6.21000000       3.42300000E-07  
6.22000000       7.28200000E-07  
6.23000000       6.29300000E-07  
6.24000000       8.19300000E-07  
6.25000000       1.09900000E-06  
6.26000000       9.49700000E-07  
6.27000000       2.03900000E-06  
6.28000000       1.78300000E-06  
6.29000000       9.83900000E-07  
6.30000000       7.46500000E-07  
6.31000000       2.59700000E-07  
6.32000000       2.56100000E-07  
6.33000000       2.33600000E-07  
6.34000000       2.24200000E-07  
6.35000000       1.98900000E-07  
6.36000000       1.74100000E-07  
6.37000000       1.44900000E-07  
6.38000000       1.18700000E-07  
6.39000000       1.02200000E-07  
6.40000000       8.03400000E-08  
6.41000000       6.63400000E-08  
6.42000000       5.70000000E-08  
6.43000000       5.77900000E-08  
6.44000000       7.14000000E-08  
6.45000000       9.28700000E-08  
6.46000000       1.17800000E-07  
6.47000000       1.35400000E-07  
6.48000000       1.60600000E-07  
6.49000000       1.86800000E-07  
6.50000000       2.23900000E-07  
6.51000000       2.51300000E-07  
6.52000000       2.86100000E-07  
6.53000000       3.19900000E-07  
6.54000000       3.57200000E-07  
6.55000000       3.98500000E-07  
6.56000000       4.11300000E-07  
6.57000000       4.48400000E-07  
6.58000000       4.87600000E-07  
6.59000000       5.63500000E-07  
6.60000000       6.30000000E-07  
6.61000000       6.94200000E-07  
6.62000000       7.28200000E-07  
6.63000000       8.37600000E-07  
6.64000000       9.09000000E-07  
6.65000000       9.93500000E-07  
6.66000000       1.06200000E-06  
6.67000000       1.13200000E-06  
6.68000000       1.20200000E-06  
6.69000000       1.18800000E-06  
6.70000000       1.19600000E-06  
6.71000000       1.20900000E-06  
6.72000000       1.16300000E-06  
6.73000000       1.09100000E-06  
6.74000000       1.00500000E-06  
6.75000000       8.50600000E-07  
6.76000000       7.31600000E-07  
6.77000000       6.58200000E-07  
6.78000000       5.42500000E-07  
6.79000000       5.19700000E-07  
6.80000000       5.64400000E-07  
6.81000000       6.81200000E-07  
6.82000000       8.07400000E-07  
6.83000000       9.47300000E-07  
6.84000000       1.04400000E-06  
6.85000000       1.20000000E-06  
6.86000000       1.35700000E-06  
6.87000000       1.50700000E-06  
6.88000000       1.68100000E-06  
6.89000000       1.90800000E-06  
6.90000000       2.22300000E-06  
6.91000000       2.39900000E-06  
6.92000000       2.61400000E-06  
6.93000000       2.88800000E-06  
6.94000000       2.91800000E-06  
6.95000000       3.04000000E-06  
6.96000000       3.11600000E-06  
6.97000000       3.17700000E-06  
6.98000000       3.31800000E-06  
6.99000000       3.21000000E-06  
7.00000000       3.23100000E-06  
7.01000000       3.34600000E-06  
7.02000000       3.32800000E-06  
7.03000000       3.24700000E-06  
7.04000000       3.13200000E-06  
7.05000000       2.91900000E-06  
7.06000000       2.79300000E-06  
7.07000000       2.79100000E-06  
7.08000000       2.60100000E-06  
7.09000000       2.61100000E-06  
7.10000000       2.51800000E-06  
7.11000000       2.37300000E-06  
7.12000000       2.35800000E-06  
7.13000000       2.17700000E-06  
7.14000000       2.06700000E-06  
7.15000000       1.94500000E-06  
7.16000000       1.85800000E-06  
7.17000000       1.67800000E-06  
7.18000000       1.59900000E-06  
7.19000000       1.44900000E-06  
7.20000000       1.35500000E-06  
7.21000000       1.24200000E-06  
7.22000000       1.10800000E-06  
7.23000000       1.04700000E-06  
7.24000000       9.30900000E-07  
7.25000000       8.79500000E-07  
7.26000000       7.98000000E-07  
7.27000000       7.14300000E-07  
7.28000000       6.59300000E-07  
7.29000000       5.93500000E-07  
7.30000000       5.38900000E-07  
7.31000000       4.86700000E-07  
7.32000000       4.34700000E-07  
7.33000000       3.78800000E-07  
7.34000000       3.21800000E-07  
7.35000000       2.63100000E-07  
7.36000000       2.10500000E-07  
7.37000000       1.60000000E-07  
7.38000000       1.14000000E-07  
7.39000000       1.11700000E-07  
7.40000000       1.34500000E-07  
7.41000000       1.70400000E-07  
7.42000000       2.13800000E-07  
7.43000000       2.71100000E-07  
7.44000000       3.13700000E-07  
7.45000000       3.57100000E-07  
7.46000000       3.77500000E-07  
7.47000000       3.93800000E-07  
7.48000000       3.90400000E-07  
7.49000000       3.99500000E-07  
7.50000000       3.85600000E-07  
7.51000000       3.60200000E-07  
7.52000000       3.50300000E-07  
7.53000000       3.23600000E-07  
7.54000000       2.97800000E-07  
7.55000000       2.69100000E-07  
7.56000000       2.32700000E-07  
7.57000000       2.07700000E-07  
7.58000000       1.73300000E-07  
7.59000000       1.51600000E-07  
7.60000000       1.20400000E-07  
7.61000000       1.08500000E-07  
7.62000000       9.04500000E-08  
7.63000000       8.35200000E-08  
7.64000000       8.26500000E-08  
7.65000000       8.27800000E-08  
7.66000000       8.13900000E-08  
7.67000000       8.31700000E-08  
7.68000000       9.05400000E-08  
7.69000000       9.45000000E-08  
7.70000000       1.00400000E-07  
7.71000000       1.02000000E-07  
7.72000000       1.08500000E-07  
7.73000000       1.18300000E-07  
7.74000000       1.23000000E-07  
7.75000000       1.30700000E-07  
7.76000000       1.42100000E-07  
7.77000000       1.45900000E-07  
7.78000000       1.57900000E-07  
7.79000000       1.64100000E-07  
7.80000000       1.66000000E-07  
7.81000000       1.72700000E-07  
7.82000000       1.84400000E-07  
7.83000000       1.93400000E-07  
7.84000000       1.91100000E-07  
7.85000000       1.94100000E-07  
7.86000000       2.04300000E-07  
7.87000000       2.00300000E-07  
7.88000000       2.10400000E-07  
7.89000000       2.16900000E-07  
7.90000000       2.16800000E-07  
7.91000000       2.26100000E-07  
7.92000000       2.35600000E-07  
7.93000000       2.46200000E-07  
7.94000000       2.65300000E-07  
7.95000000       2.76700000E-07  
7.96000000       2.80600000E-07  
7.97000000       3.06600000E-07  
7.98000000       3.09700000E-07  
7.99000000       3.23600000E-07  
8.00000000       3.37800000E-07  
8.01000000       3.39300000E-07  
8.02000000       3.39900000E-07  
8.03000000       3.47100000E-07  
8.04000000       3.32700000E-07  
8.05000000       3.32100000E-07  
8.06000000       3.14400000E-07  
8.07000000       3.05800000E-07  
8.08000000       2.94300000E-07  
8.09000000       2.77300000E-07  
8.10000000       2.77300000E-07  
8.11000000       2.73300000E-07  
8.12000000       2.59000000E-07  
8.13000000       2.57400000E-07  
8.14000000       2.73200000E-07  
8.15000000       2.64000000E-07  
8.16000000       2.73200000E-07  
8.17000000       2.86100000E-07  
8.18000000       3.02300000E-07  
8.19000000       3.22700000E-07  
8.20000000       3.46200000E-07  
8.21000000       3.78900000E-07  
8.22000000       4.23600000E-07  
8.23000000       4.80500000E-07  
8.24000000       5.78400000E-07  
8.25000000       6.44200000E-07  
8.26000000       7.58100000E-07  
8.27000000       9.41400000E-07  
8.28000000       1.01000000E-06  
8.29000000       1.19900000E-06  
8.30000000       1.46500000E-06  
8.31000000       9.78800000E-08  
8.32000000       8.15600000E-08  
8.33000000       7.69300000E-08  
8.34000000       6.74800000E-08  
8.35000000       6.59000000E-08  
8.36000000       6.70800000E-08  
8.37000000       6.29100000E-08  
8.38000000       6.17900000E-08  
8.39000000       6.28000000E-08  
8.40000000       5.97200000E-08  
8.41000000       5.43800000E-08  
8.42000000       5.15500000E-08  
8.43000000       4.83700000E-08  
8.44000000       4.73200000E-08  
8.45000000       4.50400000E-08  
8.46000000       4.13100000E-08  
8.47000000       3.95700000E-08  
8.48000000       3.88200000E-08  
8.49000000       3.82700000E-08  
8.50000000       3.78300000E-08  
8.51000000       3.79800000E-08  
8.52000000       3.93300000E-08  
8.53000000       3.84200000E-08  
8.54000000       4.06500000E-08  
8.55000000       3.99700000E-08  
8.56000000       4.20100000E-08  
8.57000000       4.13700000E-08  
8.58000000       4.19900000E-08  
8.59000000       4.28100000E-08  
8.60000000       4.35400000E-08  
8.61000000       4.43800000E-08  
8.62000000       4.64700000E-08  
8.63000000       4.71100000E-08  
8.64000000       4.75700000E-08  
8.65000000       4.70500000E-08  
8.66000000       4.86600000E-08  
8.67000000       4.98000000E-08  
8.68000000       5.08000000E-08  
8.69000000       5.18700000E-08  
8.70000000       5.27300000E-08  
8.71000000       5.31400000E-08  
8.72000000       5.39900000E-08  
8.73000000       5.46100000E-08  
8.74000000       5.29600000E-08  
8.75000000       5.43200000E-08  
8.76000000       5.48900000E-08  
8.77000000       5.43300000E-08  
8.78000000       5.55400000E-08  
8.79000000       5.68100000E-08  
8.80000000       5.85600000E-08  
8.81000000       6.18100000E-08  
8.82000000       6.35700000E-08  
8.83000000       6.38000000E-08  
8.84000000       6.49400000E-08  
8.85000000       6.80800000E-08  
8.86000000       6.81100000E-08  
8.87000000       6.99500000E-08  
8.88000000       7.18900000E-08  
8.89000000       7.43400000E-08  
8.90000000       7.91800000E-08  
8.91000000       8.12300000E-08  
8.92000000       8.51400000E-08  
8.93000000       8.80400000E-08  
8.94000000       9.01900000E-08  
8.95000000       9.39000000E-08  
8.96000000       9.61400000E-08  
8.97000000       9.89800000E-08  
8.98000000       1.01000000E-07  
8.99000000       1.01900000E-07  
9.00000000       1.00400000E-07  
9.01000000       1.04300000E-07  
9.02000000       1.08000000E-07  
9.03000000       1.08800000E-07  
9.04000000       1.07700000E-07  
9.05000000       1.11000000E-07  
9.06000000       1.12600000E-07  
9.07000000       1.14100000E-07  
9.08000000       1.14900000E-07  
9.09000000       1.15800000E-07  
9.10000000       1.16200000E-07  
9.11000000       1.15800000E-07  
9.12000000       1.15100000E-07  
9.13000000       1.16200000E-07  
9.14000000       1.12800000E-07  
9.15000000       1.12000000E-07  
9.16000000       1.12200000E-07  
9.17000000       1.11400000E-07  
9.18000000       1.11700000E-07  
9.19000000       1.09500000E-07  
9.20000000       1.06100000E-07  
9.21000000       1.00200000E-07  
9.22000000       9.91200000E-08  
9.23000000       9.50800000E-08  
9.24000000       8.82200000E-08  
9.25000000       8.41600000E-08  
9.26000000       8.15600000E-08  
9.27000000       7.92600000E-08  
9.28000000       7.47500000E-08  
9.29000000       7.31000000E-08  
9.30000000       7.21800000E-08  
9.31000000       7.03500000E-08  
9.32000000       6.85600000E-08  
9.33000000       6.59800000E-08  
9.34000000       6.60000000E-08  
9.35000000       6.51400000E-08  
9.36000000       6.32600000E-08  
9.37000000       6.19000000E-08  
9.38000000       6.12100000E-08  
9.39000000       6.05600000E-08  
9.40000000       5.99100000E-08  
9.41000000       5.92800000E-08  
9.42000000       5.86800000E-08  
9.43000000       5.80900000E-08  
9.44000000       5.75900000E-08  
9.45000000       5.71500000E-08  
9.46000000       5.63300000E-08  
9.47000000       5.57300000E-08  
9.48000000       5.48900000E-08  
9.49000000       5.42100000E-08  
9.50000000       5.33300000E-08  
9.51000000       5.27800000E-08  
9.52000000       5.21200000E-08  
9.53000000       5.13400000E-08  
9.54000000       5.09600000E-08  
9.55000000       5.05000000E-08  
9.56000000       5.01500000E-08  
9.57000000       4.90500000E-08  
9.58000000       5.00700000E-08  
9.59000000       4.98000000E-08  
9.60000000       4.88000000E-08  
9.61000000       4.85300000E-08  
9.62000000       4.81900000E-08  
9.63000000       4.79600000E-08  
9.64000000       4.81600000E-08  
9.65000000       4.78000000E-08  
9.66000000       4.86900000E-08  
9.67000000       4.90200000E-08  
9.68000000       4.89200000E-08  
9.69000000       4.81700000E-08  
9.70000000       4.78700000E-08  
9.71000000       4.82800000E-08  
9.72000000       4.76300000E-08  
9.73000000       4.69400000E-08  
9.74000000       4.66200000E-08  
9.75000000       4.64100000E-08  
9.76000000       4.70300000E-08  
9.77000000       4.71000000E-08  
9.78000000       4.67500000E-08  
9.79000000       4.67500000E-08  
9.80000000       4.68100000E-08  
9.81000000       4.66600000E-08  
9.82000000       4.65700000E-08  
9.83000000       4.64700000E-08  
9.84000000       4.66600000E-08  
9.85000000       4.68100000E-08  
9.86000000       4.67100000E-08  
9.87000000       4.61500000E-08  
9.88000000       4.60800000E-08  
9.89000000       4.63800000E-08  
9.90000000       4.61000000E-08  
9.91000000       4.57300000E-08  
9.92000000       4.65500000E-08  
9.93000000       4.64600000E-08  
9.94000000       4.64500000E-08  
9.95000000       4.63700000E-08  
9.96000000       4.66100000E-08  
9.97000000       4.66900000E-08  
9.98000000       4.66400000E-08  
9.99000000       4.63300000E-08  
10.00000000      4.63900000E-08  
10.01000000      4.64700000E-08  
10.02000000      4.66600000E-08  
10.03000000      4.67700000E-08  
10.04000000      4.69800000E-08  
10.05000000      4.72000000E-08  
10.06000000      4.71200000E-08  
10.07000000      4.71200000E-08  
10.08000000      4.69900000E-08  
10.09000000      4.61100000E-08  
10.10000000      4.69600000E-08  
10.11000000      4.64900000E-08  
10.12000000      4.63000000E-08  
10.13000000      4.60500000E-08  
10.14000000      4.58400000E-08  
10.15000000      4.57200000E-08  
10.16000000      4.53700000E-08  
10.17000000      4.50900000E-08  
10.18000000      4.49100000E-08  
10.19000000      4.48200000E-08  
10.20000000      4.45900000E-08  
10.21000000      4.44800000E-08  
10.22000000      4.42700000E-08  
10.23000000      4.43800000E-08  
10.24000000      4.39400000E-08  
10.25000000      4.38200000E-08  
10.26000000      4.38200000E-08  
10.27000000      4.33500000E-08  
10.28000000      4.31800000E-08  
10.29000000      4.29900000E-08  
10.30000000      4.32000000E-08  
10.31000000      4.34900000E-08  
10.32000000      4.36900000E-08  
10.33000000      4.38800000E-08  
10.34000000      4.40800000E-08  
10.35000000      4.42800000E-08  
10.36000000      4.50500000E-08  
10.37000000      4.55500000E-08  
10.38000000      4.54200000E-08  
10.39000000      4.51600000E-08  
10.40000000      4.46500000E-08  
10.41000000      4.44400000E-08  
10.42000000      4.45400000E-08  
10.43000000      4.43800000E-08  
10.44000000      4.41300000E-08  
10.45000000      4.39400000E-08  
10.46000000      4.40400000E-08  
10.47000000      4.40400000E-08  
10.48000000      4.32400000E-08  
10.49000000      4.38600000E-08  
10.50000000      4.43400000E-08  
10.51000000      4.44400000E-08  
10.52000000      4.46600000E-08  
10.53000000      4.51400000E-08  
10.54000000      4.54400000E-08  
10.55000000      4.56800000E-08  
10.56000000      4.53400000E-08  
10.57000000      4.50400000E-08  
10.58000000      4.50600000E-08  
10.59000000      4.49800000E-08  
10.60000000      4.48100000E-08  
10.61000000      4.47400000E-08  
10.62000000      4.45700000E-08  
10.63000000      4.43800000E-08  
10.64000000      4.47200000E-08  
10.65000000      4.44100000E-08  
10.66000000      4.40900000E-08  
10.67000000      4.38500000E-08  
10.68000000      4.37100000E-08  
10.69000000      4.34400000E-08  
10.70000000      4.32500000E-08  
10.71000000      4.30100000E-08  
10.72000000      4.27300000E-08  
10.73000000      4.26700000E-08  
10.74000000      4.26800000E-08  
10.75000000      4.26900000E-08  
10.76000000      4.22900000E-08  
10.77000000      4.19600000E-08  
10.78000000      4.23200000E-08  
10.79000000      4.23200000E-08  
10.80000000      4.22000000E-08  
10.81000000      4.20200000E-08  
10.82000000      4.19200000E-08  
10.83000000      4.14400000E-08  
10.84000000      4.15400000E-08  
10.85000000      4.18100000E-08  
10.86000000      4.20400000E-08  
10.87000000      4.20800000E-08  
10.88000000      4.19700000E-08  
10.89000000      4.20000000E-08  
10.90000000      4.20800000E-08  
10.91000000      4.27700000E-08  
10.92000000      4.30600000E-08  
10.93000000      4.32400000E-08  
10.94000000      4.36200000E-08  
10.95000000      4.41200000E-08  
10.96000000      4.45600000E-08  
10.97000000      4.50300000E-08  
10.98000000      4.55500000E-08  
10.99000000      4.62500000E-08  
11.00000000      4.73000000E-08  
11.01000000      4.84900000E-08  
11.02000000      4.96900000E-08  
11.03000000      5.08800000E-08  
11.04000000      5.29700000E-08  
11.05000000      5.55300000E-08  
11.06000000      5.82700000E-08  
11.07000000      6.14800000E-08  
11.08000000      6.50100000E-08  
11.09000000      6.96300000E-08  
11.10000000      7.48100000E-08  
11.11000000      4.75700000E-08  
11.12000000      4.30200000E-08  
11.13000000      3.84800000E-08  
11.14000000      3.30200000E-08  
11.15000000      2.95200000E-08  
11.16000000      2.64200000E-08  
11.17000000      2.37700000E-08  
11.18000000      2.11200000E-08  
11.19000000      1.89600000E-08  
11.20000000      1.75000000E-08  
11.21000000      1.61400000E-08  
11.22000000      1.49300000E-08  
11.23000000      1.39200000E-08  
11.24000000      1.32100000E-08  
11.25000000      1.24300000E-08  
11.26000000      1.17800000E-08  
11.27000000      1.10300000E-08  
11.28000000      1.06500000E-08  
11.29000000      1.05500000E-08  
11.30000000      1.02700000E-08  
11.31000000      1.00300000E-08  
11.32000000      9.63700000E-09  
11.33000000      9.57500000E-09  
11.34000000      9.54500000E-09  
11.35000000      9.62900000E-09  
11.36000000      9.66900000E-09  
11.37000000      9.65200000E-09  
11.38000000      9.52500000E-09  
11.39000000      9.73000000E-09  
11.40000000      9.91100000E-09  
11.41000000      9.98900000E-09  
11.42000000      1.01700000E-08  
11.43000000      1.02600000E-08  
11.44000000      1.04400000E-08  
11.45000000      1.05200000E-08  
11.46000000      1.07400000E-08  
11.47000000      1.09700000E-08  
11.48000000      1.10700000E-08  
11.49000000      1.11700000E-08  
11.50000000      1.13600000E-08  
11.51000000      1.16100000E-08  
11.52000000      1.18200000E-08  
11.53000000      1.20000000E-08  
11.54000000      1.20900000E-08  
11.55000000      1.23000000E-08  
11.56000000      1.24100000E-08  
11.57000000      1.25100000E-08  
11.58000000      1.28100000E-08  
11.59000000      1.29800000E-08  
11.60000000      1.31600000E-08  
11.61000000      1.33500000E-08  
11.62000000      1.35800000E-08  
11.63000000      1.38600000E-08  
11.64000000      1.40000000E-08  
11.65000000      1.43100000E-08  
11.66000000      1.46800000E-08  
11.67000000      1.49400000E-08  
11.68000000      1.52600000E-08  
11.69000000      1.55400000E-08  
11.70000000      1.58700000E-08  
11.71000000      1.62400000E-08  
11.72000000      1.66200000E-08  
11.73000000      1.69300000E-08  
11.74000000      1.71500000E-08  
11.75000000      1.75300000E-08  
11.76000000      1.78800000E-08  
11.77000000      1.80800000E-08  
11.78000000      1.83800000E-08  
11.79000000      1.87700000E-08  
11.80000000      1.91500000E-08  
11.81000000      1.97100000E-08  
11.82000000      2.00400000E-08  
11.83000000      2.04800000E-08  
11.84000000      2.09000000E-08  
11.85000000      2.12900000E-08  
11.86000000      2.16200000E-08  
11.87000000      2.18200000E-08  
11.88000000      2.24400000E-08  
11.89000000      2.30900000E-08  
11.90000000      2.34500000E-08  
11.91000000      2.37800000E-08  
11.92000000      2.41900000E-08  
11.93000000      2.44300000E-08  
11.94000000      2.43600000E-08  
11.95000000      2.46700000E-08  
11.96000000      2.49900000E-08  
11.97000000      2.53000000E-08  
11.98000000      2.55200000E-08  
11.99000000      2.58400000E-08  
12.00000000      2.60700000E-08  
12.01000000      2.67100000E-08  
12.02000000      2.68700000E-08  
12.03000000      2.68700000E-08  
12.04000000      2.62900000E-08  
12.05000000      2.64200000E-08  
12.06000000      2.64500000E-08  
12.07000000      2.65800000E-08  
12.08000000      2.67000000E-08  
12.09000000      2.68100000E-08  
12.10000000      2.69000000E-08  
12.11000000      2.69800000E-08  
12.12000000      2.69600000E-08  
12.13000000      2.70500000E-08  
12.14000000      2.71400000E-08  
12.15000000      2.72400000E-08  
12.16000000      2.73400000E-08  
12.17000000      2.81500000E-08  
12.18000000      2.83300000E-08  
12.19000000      2.82600000E-08  
12.20000000      2.77600000E-08  
12.21000000      2.79700000E-08  
12.22000000      2.80600000E-08  
12.23000000      2.86100000E-08  
12.24000000      2.87300000E-08  
12.25000000      2.86700000E-08  
12.26000000      2.85700000E-08  
12.27000000      2.84500000E-08  
12.28000000      2.82700000E-08  
12.29000000      2.79800000E-08  
12.30000000      2.73200000E-08  
12.31000000      2.71100000E-08  
12.32000000      2.70000000E-08  
12.33000000      2.68000000E-08  
12.34000000      2.71800000E-08  
12.35000000      2.70300000E-08  
12.36000000      2.66500000E-08  
12.37000000      2.57100000E-08  
12.38000000      2.54300000E-08  
12.39000000      2.51400000E-08  
12.40000000      2.48500000E-08  
12.41000000      2.49000000E-08  
12.42000000      2.47600000E-08  
12.43000000      2.44400000E-08  
12.44000000      2.39000000E-08  
12.45000000      2.34500000E-08  
12.46000000      2.31600000E-08  
12.47000000      2.31600000E-08  
12.48000000      2.28800000E-08  
12.49000000      2.25100000E-08  
12.50000000      2.21900000E-08  
12.51000000      2.17100000E-08  
12.52000000      2.08700000E-08  
12.53000000      2.05500000E-08  
12.54000000      2.02400000E-08  
12.55000000      2.02600000E-08  
12.56000000      1.99700000E-08  
12.57000000      1.96400000E-08  
12.58000000      1.93000000E-08  
12.59000000      1.89300000E-08  
12.60000000      1.84600000E-08  
12.61000000      1.81800000E-08  
12.62000000      1.80100000E-08  
12.63000000      1.77600000E-08  
12.64000000      1.74700000E-08  
12.65000000      1.71600000E-08  
12.66000000      1.68100000E-08  
12.67000000      1.61600000E-08  
12.68000000      1.58600000E-08  
12.69000000      1.55600000E-08  
12.70000000      1.51600000E-08  
12.71000000      1.49700000E-08  
12.72000000      1.48600000E-08  
12.73000000      1.48600000E-08  
12.74000000      1.47600000E-08  
12.75000000      1.46600000E-08  
12.76000000      1.46600000E-08  
12.77000000      1.45600000E-08  
12.78000000      1.48600000E-08  
12.79000000      1.51500000E-08  
12.80000000      1.55500000E-08  
12.81000000      1.59400000E-08  
12.82000000      1.64300000E-08  
12.83000000      1.69200000E-08  
12.84000000      1.79100000E-08  
12.85000000      1.92400000E-08  
12.86000000      2.08500000E-08  
12.87000000      2.26800000E-08  
12.88000000      2.47800000E-08  
12.89000000      2.72800000E-08  
12.90000000      3.02600000E-08  
12.91000000      3.30300000E-08  
12.92000000      3.61800000E-08  
12.93000000      4.00700000E-08  
12.94000000      4.48800000E-08  
12.95000000      5.09600000E-08  
12.96000000      5.94100000E-08  
12.97000000      6.78900000E-08  
12.98000000      7.59800000E-08  
12.99000000      8.58700000E-08  
13.00000000      9.81500000E-08  
13.01000000      1.14900000E-07  
13.02000000      1.36800000E-07  
13.03000000      1.66500000E-07  
13.04000000      1.82000000E-07  
13.05000000      1.99000000E-07  
13.06000000      2.19400000E-07  
13.07000000      2.43500000E-07  
13.08000000      2.74400000E-07  
13.09000000      3.17200000E-07  
13.10000000      2.93000000E-07  
13.11000000      3.43700000E-07  
13.12000000      3.40300000E-07  
13.13000000      3.38500000E-07  
13.14000000      3.34200000E-07  
13.15000000      3.28800000E-07  
13.16000000      3.22200000E-07  
13.17000000      3.09700000E-07  
13.18000000      2.95900000E-07  
13.19000000      2.82900000E-07  
13.20000000      1.91800000E-07  
13.21000000      5.06500000E-07  
13.22000000      5.09400000E-07  
13.23000000      5.13900000E-07  
13.24000000      5.15900000E-07  
13.25000000      5.18000000E-07  
13.26000000      5.19700000E-07  
13.27000000      5.19700000E-07  
13.28000000      5.18900000E-07  
13.29000000      5.19300000E-07  
13.30000000      5.19300000E-07  
13.31000000      5.19500000E-07  
13.32000000      5.19100000E-07  
13.33000000      5.17700000E-07  
13.34000000      5.14900000E-07  
13.35000000      4.97200000E-07  
13.36000000      5.25900000E-07  
13.37000000      5.24900000E-07  
13.38000000      5.05800000E-07  
13.39000000      5.09100000E-07  
13.40000000      5.06000000E-07  
13.41000000      5.18500000E-07  
13.42000000      5.17900000E-07  
13.43000000      5.16100000E-07  
13.44000000      4.96800000E-07  
13.45000000      4.99900000E-07  
13.46000000      5.17900000E-07  
13.47000000      5.18100000E-07  
13.48000000      5.19600000E-07  
13.49000000      5.19900000E-07  
13.50000000      5.20500000E-07  
13.51000000      5.23000000E-07  
13.52000000      5.24600000E-07  
13.53000000      5.27200000E-07  
13.54000000      5.28900000E-07  
13.55000000      5.31700000E-07  
13.56000000      5.34600000E-07  
13.57000000      5.36400000E-07  
13.58000000      5.22500000E-07  
13.59000000      5.30100000E-07  
13.60000000      5.31600000E-07  
13.61000000      5.29800000E-07  
13.62000000      5.42300000E-07  
13.63000000      5.43100000E-07  
13.64000000      5.42800000E-07  
13.65000000      5.28800000E-07  
13.66000000      5.32200000E-07  
13.67000000      5.33300000E-07  
13.68000000      5.33600000E-07  
13.69000000      5.33400000E-07  
13.70000000      5.32700000E-07  
13.71000000      5.31400000E-07  
13.72000000      5.31800000E-07  
13.73000000      5.34600000E-07  
13.74000000      5.36700000E-07  
13.75000000      5.37500000E-07  
13.76000000      5.37400000E-07  
13.77000000      5.30600000E-07  
13.78000000      5.39400000E-07  
13.79000000      5.39000000E-07  
13.80000000      5.39700000E-07  
13.81000000      5.40400000E-07  
13.82000000      5.42200000E-07  
13.83000000      5.42800000E-07  
13.84000000      5.43500000E-07  
13.85000000      5.45000000E-07  
13.86000000      5.45400000E-07  
13.87000000      5.46600000E-07  
13.88000000      5.47600000E-07  
13.89000000      5.48400000E-07  
13.90000000      5.49300000E-07  
13.91000000      5.50100000E-07  
13.92000000      5.42900000E-07  
13.93000000      5.46600000E-07  
13.94000000      5.47000000E-07  
13.95000000      5.39000000E-07  
13.96000000      5.53800000E-07  
13.97000000      5.53800000E-07  
13.98000000      5.55000000E-07  
13.99000000      5.55300000E-07  
14.00000000      5.55700000E-07  
14.01000000      5.50400000E-07  
14.02000000      5.53900000E-07  
14.03000000      5.52900000E-07  
14.04000000      5.56900000E-07  
14.05000000      5.57400000E-07  
14.06000000      5.58300000E-07  
14.07000000      5.59800000E-07  
14.08000000      5.51200000E-07  
14.09000000      5.53700000E-07  
14.10000000      5.59100000E-07  
14.11000000      5.55600000E-07  
14.12000000      5.52500000E-07  
14.13000000      5.49700000E-07  
14.14000000      5.41300000E-07  
14.15000000      5.42300000E-07  
14.16000000      5.41200000E-07  
14.17000000      5.38600000E-07  
14.18000000      5.30000000E-07  
14.19000000      5.37300000E-07  
14.20000000      5.35800000E-07  
14.21000000      5.25900000E-07  
14.22000000      5.28700000E-07  
14.23000000      5.28700000E-07  
14.24000000      5.28200000E-07  
14.25000000      5.28400000E-07  
14.26000000      5.29800000E-07  
14.27000000      5.30700000E-07  
14.28000000      5.30800000E-07  
14.29000000      5.28900000E-07  
14.30000000      5.27300000E-07  
14.31000000      5.26000000E-07  
14.32000000      5.26500000E-07  
14.33000000      5.28300000E-07  
14.34000000      5.29100000E-07  
14.35000000      5.29500000E-07  
14.36000000      5.26400000E-07  
14.37000000      5.33200000E-07  
14.38000000      5.35100000E-07  
14.39000000      5.35900000E-07  
14.40000000      5.37500000E-07  
14.41000000      5.39200000E-07  
14.42000000      5.40700000E-07  
14.43000000      5.43300000E-07  
14.44000000      5.28300000E-07  
14.45000000      5.39700000E-07  
14.46000000      5.49000000E-07  
14.47000000      5.50600000E-07  
14.48000000      5.53200000E-07  
14.49000000      5.55800000E-07  
14.50000000      5.54500000E-07  
14.51000000      5.61700000E-07  
14.52000000      5.65400000E-07  
14.53000000      5.69300000E-07  
14.54000000      5.71800000E-07  
14.55000000      5.66300000E-07  
14.56000000      5.78200000E-07  
14.57000000      5.82000000E-07  
14.58000000      5.82200000E-07  
14.59000000      5.92400000E-07  
14.60000000      5.98900000E-07  
14.61000000      6.02100000E-07  
14.62000000      6.04600000E-07  
14.63000000      6.04100000E-07  
14.64000000      6.07200000E-07  
14.65000000      6.17100000E-07  
14.66000000      6.22800000E-07  
14.67000000      6.28200000E-07  
14.68000000      6.32600000E-07  
14.69000000      6.33900000E-07  
14.70000000      6.35600000E-07  
14.71000000      6.38800000E-07  
14.72000000      6.43000000E-07  
14.73000000      6.47300000E-07  
14.74000000      6.49600000E-07  
14.75000000      6.52000000E-07  
14.76000000      6.55500000E-07  
14.77000000      6.52200000E-07  
14.78000000      6.60400000E-07  
14.79000000      6.62900000E-07  
14.80000000      6.65300000E-07  
14.81000000      6.67600000E-07  
14.82000000      6.70100000E-07  
14.83000000      6.70200000E-07  
14.84000000      6.71400000E-07  
14.85000000      6.69800000E-07  
14.86000000      6.79500000E-07  
14.87000000      6.82000000E-07  
14.88000000      6.82500000E-07  
14.89000000      6.80500000E-07  
14.90000000      6.77300000E-07  
14.91000000      6.73200000E-07  
14.92000000      6.73700000E-07  
14.93000000      6.73300000E-07  
14.94000000      6.64400000E-07  
14.95000000      6.78500000E-07  
14.96000000      6.80400000E-07  
14.97000000      6.81700000E-07  
14.98000000      6.80800000E-07  
14.99000000      6.80100000E-07  
15.00000000      6.78900000E-07  
15.01000000      6.78700000E-07  
15.02000000      6.80000000E-07  
15.03000000      6.81800000E-07  
15.04000000      6.82900000E-07  
15.05000000      6.83700000E-07  
15.06000000      6.84200000E-07  
15.07000000      6.85000000E-07  
15.08000000      6.84400000E-07  
15.09000000      6.82000000E-07  
15.10000000      6.79100000E-07  
15.11000000      6.70000000E-07  
15.12000000      6.76400000E-07  
15.13000000      6.67500000E-07  
15.14000000      6.74400000E-07  
15.15000000      6.74800000E-07  
15.16000000      6.73400000E-07  
15.17000000      6.71700000E-07  
15.18000000      6.67600000E-07  
15.19000000      6.59700000E-07  
15.20000000      6.67900000E-07  
15.21000000      6.66700000E-07  
15.22000000      6.65500000E-07  
15.23000000      6.65200000E-07  
15.24000000      6.64100000E-07  
15.25000000      6.62900000E-07  
15.26000000      6.62700000E-07  
15.27000000      6.62600000E-07  
15.28000000      6.62300000E-07  
15.29000000      6.62200000E-07  
15.30000000      6.62100000E-07  
15.31000000      6.53300000E-07  
15.32000000      6.55500000E-07  
15.33000000      6.54300000E-07  
15.34000000      6.46100000E-07  
15.35000000      6.62300000E-07  
15.36000000      6.62300000E-07  
15.37000000      6.63400000E-07  
15.38000000      6.51400000E-07  
15.39000000      6.54600000E-07  
15.40000000      6.53700000E-07  
15.41000000      6.51200000E-07  
15.42000000      6.52400000E-07  
15.43000000      6.55600000E-07  
15.44000000      6.59800000E-07  
15.45000000      6.62700000E-07  
15.46000000      6.65300000E-07  
15.47000000      6.65200000E-07  
15.48000000      6.60400000E-07  
15.49000000      6.81900000E-07  
15.50000000      6.84300000E-07  
15.51000000      6.86800000E-07  
15.52000000      6.74800000E-07  
15.53000000      6.82200000E-07  
15.54000000      6.89300000E-07  
15.55000000      6.96500000E-07  
15.56000000      7.01400000E-07  
15.57000000      7.05000000E-07  
15.58000000      7.05700000E-07  
15.59000000      7.27200000E-07  
15.60000000      7.32200000E-07  
15.61000000      7.37000000E-07  
15.62000000      7.42700000E-07  
15.63000000      7.47400000E-07  
15.64000000      7.52800000E-07  
15.65000000      7.45800000E-07  
15.66000000      7.53400000E-07  
15.67000000      7.58600000E-07  
15.68000000      7.63000000E-07  
15.69000000      7.67500000E-07  
15.70000000      7.73300000E-07  
15.71000000      7.79800000E-07  
15.72000000      7.85100000E-07  
15.73000000      7.89000000E-07  
15.74000000      7.92300000E-07  
15.75000000      7.95100000E-07  
15.76000000      7.96500000E-07  
15.77000000      7.93300000E-07  
15.78000000      8.14900000E-07  
15.79000000      8.18500000E-07  
15.80000000      8.21800000E-07  
15.81000000      8.26300000E-07  
15.82000000      8.05000000E-07  
15.83000000      8.15200000E-07  
15.84000000      8.16100000E-07  
15.85000000      8.39400000E-07  
15.86000000      8.42800000E-07  
15.87000000      8.46000000E-07  
15.88000000      8.49400000E-07  
15.89000000      8.52600000E-07  
15.90000000      8.56000000E-07  
15.91000000      8.59200000E-07  
15.92000000      8.43700000E-07  
15.93000000      8.51300000E-07  
15.94000000      8.53100000E-07  
15.95000000      8.48700000E-07  
15.96000000      8.75100000E-07  
15.97000000      8.78800000E-07  
15.98000000      8.82300000E-07  
15.99000000      8.85800000E-07  
16.00000000      8.89300000E-07  
16.01000000      8.94300000E-07  
16.02000000      8.98100000E-07  
16.03000000      9.02200000E-07  
16.04000000      9.06100000E-07  
16.05000000      9.10300000E-07  
16.06000000      9.14400000E-07  
16.07000000      9.18600000E-07  
16.08000000      9.23000000E-07  
16.09000000      9.14200000E-07  
16.10000000      9.24900000E-07  
16.11000000      9.29300000E-07  
16.12000000      9.42000000E-07  
16.13000000      9.43100000E-07  
16.14000000      9.43800000E-07  
16.15000000      9.54400000E-07  
16.16000000      9.53900000E-07  
16.17000000      9.52900000E-07  
16.18000000      9.61900000E-07  
16.19000000      9.60500000E-07  
16.20000000      9.61300000E-07  
16.21000000      9.64400000E-07  
16.22000000      9.78500000E-07  
16.23000000      9.81800000E-07  
16.24000000      9.84500000E-07  
16.25000000      9.86200000E-07  
16.26000000      9.87100000E-07  
16.27000000      9.97100000E-07  
16.28000000      9.95900000E-07  
16.29000000      9.93300000E-07  
16.30000000      9.88700000E-07  
16.31000000      9.75800000E-07  
16.32000000      9.89600000E-07  
16.33000000      9.89500000E-07  
16.34000000      9.89400000E-07  
16.35000000      9.83200000E-07  
16.36000000      9.90000000E-07  
16.37000000      9.91400000E-07  
16.38000000      9.87000000E-07  
16.39000000      9.90000000E-07  
16.40000000      9.90500000E-07  
16.41000000      9.90900000E-07  
16.42000000      9.91300000E-07  
16.43000000      1.00200000E-06  
16.44000000      1.00300000E-06  
16.45000000      1.00300000E-06  
16.46000000      1.00400000E-06  
16.47000000      1.00400000E-06  
16.48000000      1.00500000E-06  
16.49000000      1.00500000E-06  
16.50000000      1.01600000E-06  
16.51000000      1.01600000E-06  
16.52000000      1.01600000E-06  
16.53000000      1.01600000E-06  
16.54000000      1.02700000E-06  
16.55000000      1.02700000E-06  
16.56000000      1.03700000E-06  
16.57000000      1.03700000E-06  
16.58000000      1.03600000E-06  
16.59000000      1.05000000E-06  
16.60000000      1.05500000E-06  
16.61000000      1.06400000E-06  
16.62000000      1.06000000E-06  
16.63000000      1.05700000E-06  
16.64000000      1.07200000E-06  
16.65000000      1.08100000E-06  
16.66000000      1.07500000E-06  
16.67000000      1.08800000E-06  
16.68000000      1.09000000E-06  
16.69000000      1.10700000E-06  
16.70000000      1.11600000E-06  
16.71000000      1.12400000E-06  
16.72000000      1.13300000E-06  
16.73000000      1.14200000E-06  
16.74000000      1.15000000E-06  
16.75000000      1.15900000E-06  
16.76000000      1.16800000E-06  
16.77000000      1.17700000E-06  
16.78000000      1.18600000E-06  
16.79000000      1.19400000E-06  
16.80000000      1.21000000E-06  
16.81000000      1.22000000E-06  
16.82000000      1.21700000E-06  
16.83000000      1.24000000E-06  
16.84000000      1.26000000E-06  
16.85000000      1.26900000E-06  
16.86000000      1.27700000E-06  
16.87000000      1.29700000E-06  
16.88000000      1.30500000E-06  
16.89000000      1.31400000E-06  
16.90000000      1.34000000E-06  
16.91000000      1.35800000E-06  
16.92000000      1.37900000E-06  
16.93000000      1.38800000E-06  
16.94000000      1.39600000E-06  
16.95000000      1.41300000E-06  
16.96000000      1.42000000E-06  
16.97000000      1.44100000E-06  
16.98000000      1.46300000E-06  
16.99000000      1.47500000E-06  
17.00000000      1.49700000E-06  
17.01000000      1.50800000E-06  
17.02000000      1.52800000E-06  
17.03000000      1.54700000E-06  
17.04000000      1.55400000E-06  
17.05000000      1.57100000E-06  
17.06000000      1.58600000E-06  
17.07000000      1.60200000E-06  
17.08000000      1.61300000E-06  
17.09000000      1.63900000E-06  
17.10000000      1.66500000E-06  
17.11000000      1.68800000E-06  
17.12000000      1.70500000E-06  
17.13000000      1.71000000E-06  
17.14000000      1.71400000E-06  
17.15000000      1.72400000E-06  
17.16000000      1.74400000E-06  
17.17000000      1.76300000E-06  
17.18000000      1.82200000E-06  
17.19000000      1.84800000E-06  
17.20000000      1.87700000E-06  
17.21000000      1.89100000E-06  
17.22000000      1.90200000E-06  
17.23000000      1.92100000E-06  
17.24000000      1.92200000E-06  
17.25000000      1.88700000E-06  
17.26000000      1.89800000E-06  
17.27000000      1.90800000E-06  
17.28000000      1.92900000E-06  
17.29000000      1.94000000E-06  
17.30000000      1.95100000E-06  
17.31000000      2.00600000E-06  
17.32000000      2.05500000E-06  
17.33000000      2.07300000E-06  
17.34000000      2.07800000E-06  
17.35000000      2.06500000E-06  
17.36000000      2.03800000E-06  
17.37000000      2.04900000E-06  
17.38000000      2.06000000E-06  
17.39000000      2.08100000E-06  
17.40000000      2.14700000E-06  
17.41000000      2.18500000E-06  
17.42000000      2.20100000E-06  
17.43000000      2.17700000E-06  
17.44000000      2.16400000E-06  
17.45000000      2.18500000E-06  
17.46000000      2.25100000E-06  
17.47000000      2.31600000E-06  
17.48000000      2.35300000E-06  
17.49000000      2.38300000E-06  
17.50000000      2.40700000E-06  
17.51000000      2.42600000E-06  
17.52000000      2.45200000E-06  
17.53000000      2.48500000E-06  
17.54000000      2.51100000E-06  
17.55000000      2.53600000E-06  
17.56000000      2.49500000E-06  
17.57000000      2.53300000E-06  
17.58000000      2.58000000E-06  
17.59000000      2.62800000E-06  
17.60000000      2.70200000E-06  
17.61000000      2.80400000E-06  
17.62000000      2.86700000E-06  
17.63000000      2.92900000E-06  
17.64000000      2.97400000E-06  
17.65000000      3.03400000E-06  
17.66000000      3.08800000E-06  
17.67000000      3.14000000E-06  
17.68000000      3.21000000E-06  
17.69000000      3.27500000E-06  
17.70000000      3.34900000E-06  
17.71000000      3.40400000E-06  
17.72000000      3.43300000E-06  
17.73000000      3.51700000E-06  
17.74000000      3.60200000E-06  
17.75000000      3.69500000E-06  
17.76000000      3.78900000E-06  
17.77000000      3.91100000E-06  
17.78000000      4.11000000E-06  
17.79000000      4.28300000E-06  
17.80000000      4.44300000E-06  
17.81000000      4.58800000E-06  
17.82000000      4.73500000E-06  
17.83000000      4.87300000E-06  
17.84000000      5.02900000E-06  
17.85000000      5.20000000E-06  
17.86000000      5.38200000E-06  
17.87000000      5.58900000E-06  
17.88000000      5.81200000E-06  
17.89000000      6.07300000E-06  
17.90000000      6.35800000E-06  
17.91000000      6.65000000E-06  
17.92000000      6.91600000E-06  
17.93000000      7.27500000E-06  
17.94000000      7.70100000E-06  
17.95000000      8.13400000E-06  
17.96000000      8.77900000E-06  
17.97000000      9.43000000E-06  
17.98000000      1.01100000E-05  
17.99000000      1.09500000E-05  
18.00000000      1.17700000E-05  
18.01000000      1.26500000E-05  
18.02000000      1.33800000E-05  
18.03000000      1.40800000E-05  
18.04000000      1.52900000E-05  
18.05000000      1.64900000E-05  
18.06000000      1.78500000E-05  
18.07000000      1.94500000E-05  
18.08000000      2.12700000E-05  
18.09000000      2.36000000E-05  
18.10000000      2.60100000E-05  
18.11000000      2.98300000E-05  
18.12000000      3.43600000E-05  
18.13000000      4.01700000E-05  
18.14000000      4.01600000E-05  
18.15000000      4.14100000E-05  
18.16000000      4.06100000E-05  
18.17000000      3.96600000E-05  
18.18000000      3.84100000E-05  
18.19000000      3.70800000E-05  
18.20000000      3.54700000E-05  
18.21000000      3.40400000E-05  
18.22000000      2.44100000E-05  
18.23000000      2.95500000E-05  
18.24000000      3.16900000E-05  
18.25000000      3.26500000E-05  
18.26000000      3.24900000E-05  
18.27000000      2.36900000E-05  
18.28000000      1.16500000E-05  
18.29000000      1.43000000E-05  
18.30000000      1.12200000E-05  
18.31000000      8.96400000E-06  
18.32000000      7.24900000E-06  
18.33000000      5.91600000E-06  
18.34000000      4.94900000E-06  
18.35000000      4.20100000E-06  
18.36000000      3.61700000E-06  
18.37000000      3.17400000E-06  
18.38000000      2.23300000E-06  
18.39000000      2.67100000E-06  
18.40000000      1.95500000E-06  
18.41000000      2.22500000E-06  
18.42000000      2.55400000E-06  
18.43000000      2.77400000E-06  
18.44000000      2.84900000E-06  
18.45000000      2.70500000E-06  
18.46000000      2.32300000E-06  
18.47000000      1.77000000E-06  
18.48000000      1.19800000E-06  
18.49000000      1.28300000E-06  
18.50000000      2.26500000E-06  
18.51000000      3.36200000E-06  
18.52000000      4.28400000E-06  
18.53000000      4.88400000E-06  
18.54000000      4.89800000E-06  
18.55000000      4.00200000E-06  
18.56000000      8.54400000E-07  
18.57000000      4.13700000E-07  
18.58000000      4.41500000E-07  
18.59000000      4.73500000E-07  
18.60000000      5.06100000E-07  
18.61000000      5.44000000E-07  
18.62000000      4.72400000E-06  
18.63000000      7.16800000E-06  
18.64000000      8.23200000E-06  
18.65000000      7.95300000E-06  
18.66000000      6.34800000E-06  
18.67000000      2.62500000E-06  
18.68000000      8.80500000E-07  
18.69000000      9.24500000E-07  
18.70000000      9.58800000E-07  
18.71000000      2.22000000E-06  
18.72000000      7.04400000E-06  
18.73000000      1.02300000E-05  
18.74000000      1.26700000E-05  
18.75000000      1.45100000E-05  
18.76000000      1.59100000E-05  
18.77000000      1.69500000E-05  
18.78000000      1.76100000E-05  
18.79000000      1.79400000E-05  
18.80000000      1.79500000E-05  
18.81000000      1.77300000E-05  
18.82000000      1.73500000E-05  
18.83000000      1.69500000E-05  
18.84000000      1.69000000E-05  
18.85000000      1.73100000E-05  
18.86000000      1.81000000E-05  
18.87000000      1.92700000E-05  
18.88000000      2.07600000E-05  
18.89000000      2.22100000E-05  
18.90000000      2.38900000E-05  
18.91000000      2.56400000E-05  
18.92000000      2.75200000E-05  
18.93000000      2.92500000E-05  
18.94000000      3.09200000E-05  
18.95000000      3.24200000E-05  
18.96000000      3.34500000E-05  
18.97000000      3.39800000E-05  
18.98000000      3.32300000E-05  
18.99000000      3.07500000E-05  
19.00000000      2.57800000E-05  
19.01000000      1.67300000E-05  
19.02000000      8.60300000E-06  
19.03000000      9.36000000E-06  
19.04000000      1.01900000E-05  
19.05000000      1.84200000E-05  
19.06000000      3.45800000E-05  
19.07000000      1.15400000E-04  
19.08000000      2.70600000E-04  
19.09000000      5.03800000E-04  
19.10000000      6.93500000E-04  
19.11000000      8.42600000E-04  
19.12000000      8.87700000E-04  
19.13000000      9.05600000E-04  
19.14000000      8.69100000E-04  
19.15000000      8.13300000E-04  
19.16000000      7.17500000E-04  
19.17000000      5.89100000E-04  
19.18000000      4.34000000E-04  
19.19000000      2.36000000E-04  
19.20000000      1.03100000E-04  
19.21000000      5.89600000E-05  
19.22000000      2.26700000E-05  
19.23000000      5.48900000E-05  
19.24000000      6.01500000E-05  
19.25000000      5.46000000E-05  
19.26000000      1.00300000E-04  
19.27000000      1.42300000E-04  
19.28000000      1.81900000E-04  
19.29000000      2.18000000E-04  
19.30000000      5.02200000E-05  
19.31000000      2.47900000E-04  
19.32000000      2.71100000E-04  
19.33000000      3.06500000E-04  
19.34000000      3.49600000E-04  
19.35000000      4.07000000E-04  
19.36000000      4.65300000E-04  
19.37000000      5.88800000E-04  
19.38000000      7.31900000E-04  
19.39000000      9.81600000E-04  
19.40000000      1.28000000E-03  
19.41000000      1.58500000E-03  
19.42000000      1.86300000E-03  
19.43000000      2.09500000E-03  
19.44000000      2.26300000E-03  
19.45000000      2.41500000E-03  
19.46000000      2.52400000E-03  
19.47000000      2.63100000E-03  
19.48000000      2.71400000E-03  
19.49000000      2.79600000E-03  
19.50000000      2.91600000E-03  
19.51000000      3.06300000E-03  
19.52000000      3.28700000E-03  
19.53000000      3.58900000E-03  
19.54000000      3.97000000E-03  
19.55000000      4.48300000E-03  
19.56000000      5.06000000E-03  
19.57000000      5.86900000E-03  
19.58000000      6.72300000E-03  
19.59000000      7.88100000E-03  
19.60000000      9.10000000E-03  
19.61000000      1.06400000E-02  
19.62000000      1.22300000E-02  
19.63000000      1.40200000E-02  
19.64000000      1.60100000E-02  
19.65000000      1.83000000E-02  
19.66000000      2.07900000E-02  
19.67000000      2.34800000E-02  
19.68000000      2.65700000E-02  
19.69000000      2.98600000E-02  
19.70000000      3.39400000E-02  
19.71000000      3.81200000E-02  
19.72000000      4.31800000E-02  
19.73000000      4.84500000E-02  
19.74000000      5.46000000E-02  
19.75000000      6.08400000E-02  
19.76000000      6.77800000E-02  
19.77000000      7.51300000E-02  
19.78000000      8.29700000E-02  
19.79000000      9.15100000E-02  
19.80000000      1.00300000E-01  
19.81000000      1.11300000E-01  
19.82000000      1.22200000E-01  
19.83000000      1.34200000E-01  
19.84000000      1.46100000E-01  
19.85000000      1.58100000E-01  
19.86000000      1.70100000E-01  
19.87000000      1.80100000E-01  
19.88000000      1.90100000E-01  
19.89000000      1.99200000E-01  
19.90000000      2.07300000E-01  
19.91000000      2.14400000E-01  
19.92000000      2.21500000E-01  
19.93000000      2.27500000E-01  
19.94000000      2.33600000E-01  
19.95000000      2.38600000E-01  
19.96000000      2.42700000E-01  
19.97000000      2.44700000E-01  
19.98000000      2.46800000E-01  
19.99000000      2.46800000E-01  
20.00000000      2.46900000E-01  
20.01000000      2.45900000E-01  
20.02000000      2.45900000E-01  
20.03000000      2.46000000E-01  
20.04000000      2.46000000E-01  
20.05000000      2.47000000E-01  
20.06000000      2.48100000E-01  
20.07000000      2.49100000E-01  
20.08000000      2.50100000E-01  
20.09000000      2.51100000E-01  
20.10000000      2.51100000E-01  
20.11000000      2.51200000E-01  
20.12000000      2.52200000E-01  
20.13000000      2.54200000E-01  
20.14000000      2.57200000E-01  
20.15000000      2.60200000E-01  
20.16000000      2.64200000E-01  
20.17000000      2.67200000E-01  
20.18000000      2.70100000E-01  
20.19000000      2.72100000E-01  
20.20000000      2.72100000E-01  
20.21000000      2.73100000E-01  
20.22000000      2.72100000E-01  
20.23000000      2.72100000E-01  
20.24000000      2.71100000E-01  
20.25000000      2.70100000E-01  
20.26000000      2.69200000E-01  
20.27000000      2.69200000E-01  
20.28000000      2.67200000E-01  
20.29000000      2.65200000E-01  
20.30000000      2.63200000E-01  
20.31000000      2.61200000E-01  
20.32000000      2.59200000E-01  
20.33000000      2.58200000E-01  
20.34000000      2.58200000E-01  
20.35000000      2.58200000E-01  
20.36000000      2.60100000E-01  
20.37000000      2.62100000E-01  
20.38000000      2.65100000E-01  
20.39000000      2.67100000E-01  
20.40000000      2.69100000E-01  
20.41000000      2.70100000E-01  
20.42000000      2.71100000E-01  
20.43000000      2.72100000E-01  
20.44000000      2.73100000E-01  
20.45000000      2.75100000E-01  
20.46000000      2.77100000E-01  
20.47000000      2.80100000E-01  
20.48000000      2.82100000E-01  
20.49000000      2.85100000E-01  
20.50000000      2.85100000E-01  
20.51000000      2.86100000E-01  
20.52000000      2.85100000E-01  
20.53000000      2.84100000E-01  
20.54000000      2.82100000E-01  
20.55000000      2.81100000E-01  
20.56000000      2.80100000E-01  
20.57000000      2.79100000E-01  
20.58000000      2.79100000E-01  
20.59000000      2.79100000E-01  
20.60000000      2.78100000E-01  
20.61000000      2.77100000E-01  
20.62000000      2.76100000E-01  
20.63000000      2.74100000E-01  
20.64000000      2.73100000E-01  
20.65000000      2.71100000E-01  
20.66000000      2.71100000E-01  
20.67000000      2.72100000E-01  
20.68000000      2.74100000E-01  
20.69000000      2.77100000E-01  
20.70000000      2.79100000E-01  
20.71000000      2.81100000E-01  
20.72000000      2.82100000E-01  
20.73000000      2.82100000E-01  
20.74000000      2.81100000E-01  
20.75000000      2.79100000E-01  
20.76000000      2.77100000E-01  
20.77000000      2.75100000E-01  
20.78000000      2.73100000E-01  
20.79000000      2.73100000E-01  
20.80000000      2.73100000E-01  
20.81000000      2.74100000E-01  
20.82000000      2.74100000E-01  
20.83000000      2.75100000E-01  
20.84000000      2.76100000E-01  
20.85000000      2.76100000E-01  
20.86000000      2.75100000E-01  
20.87000000      2.75100000E-01  
20.88000000      2.75100000E-01  
20.89000000      2.75100000E-01  
20.90000000      2.76100000E-01  
20.91000000      2.76100000E-01  
20.92000000      2.77100000E-01  
20.93000000      2.77100000E-01  
20.94000000      2.77100000E-01  
20.95000000      2.75100000E-01  
20.96000000      2.73100000E-01  
20.97000000      2.71100000E-01  
20.98000000      2.68100000E-01  
20.99000000      2.65100000E-01  
21.00000000      2.64100000E-01  
21.01000000      2.62100000E-01  
21.02000000      2.63100000E-01  
21.03000000      2.63100000E-01  
21.04000000      2.65100000E-01  
21.05000000      2.67100000E-01  
21.06000000      2.68100000E-01  
21.07000000      2.70100000E-01  
21.08000000      2.72100000E-01  
21.09000000      2.73100000E-01  
21.10000000      2.75100000E-01  
21.11000000      2.77100000E-01  
21.12000000      2.79100000E-01  
21.13000000      2.82100000E-01  
21.14000000      2.85100000E-01  
21.15000000      2.88000000E-01  
21.16000000      2.91000000E-01  
21.17000000      2.93000000E-01  
21.18000000      2.95000000E-01  
21.19000000      2.95000000E-01  
21.20000000      2.95000000E-01  
21.21000000      2.95000000E-01  
21.22000000      2.95000000E-01  
21.23000000      2.96000000E-01  
21.24000000      2.96000000E-01  
21.25000000      2.97000000E-01  
21.26000000      2.99000000E-01  
21.27000000      3.00000000E-01  
21.28000000      3.00000000E-01  
21.29000000      3.00000000E-01  
21.30000000      2.98000000E-01  
21.31000000      2.96000000E-01  
21.32000000      2.93000000E-01  
21.33000000      2.89000000E-01  
21.34000000      2.87000000E-01  
21.35000000      2.84000000E-01  
21.36000000      2.82000000E-01  
21.37000000      2.81000000E-01  
21.38000000      2.80000000E-01  
21.39000000      2.79000000E-01  
21.40000000      2.78000000E-01  
21.41000000      2.77000000E-01  
21.42000000      2.76000000E-01  
21.43000000      2.74000000E-01  
21.44000000      2.73000000E-01  
21.45000000      2.72000000E-01  
21.46000000      2.72000000E-01  
21.47000000      2.74000000E-01  
21.48000000      2.76000000E-01  
21.49000000      2.79000000E-01  
21.50000000      2.83000000E-01  
21.51000000      2.87000000E-01  
21.52000000      2.90000000E-01  
21.53000000      2.93000000E-01  
21.54000000      2.95000000E-01  
21.55000000      2.96000000E-01  
21.56000000      2.97000000E-01  
21.57000000      2.97000000E-01  
21.58000000      2.97000000E-01  
21.59000000      2.97000000E-01  
21.60000000      2.97000000E-01  
21.61000000      2.97000000E-01  
21.62000000      2.97000000E-01  
21.63000000      2.95000000E-01  
21.64000000      2.94000000E-01  
21.65000000      2.91000000E-01  
21.66000000      2.87000000E-01  
21.67000000      2.83000000E-01  
21.68000000      2.78000000E-01  
21.69000000      2.73000000E-01  
21.70000000      2.69000000E-01  
21.71000000      2.66000000E-01  
21.72000000      2.64000000E-01  
21.73000000      2.62000000E-01  
21.74000000      2.62000000E-01  
21.75000000      2.62000000E-01  
21.76000000      2.62000000E-01  
21.77000000      2.63000000E-01  
21.78000000      2.63000000E-01  
21.79000000      2.63000000E-01  
21.80000000      2.63000000E-01  
21.81000000      2.64000000E-01  
21.82000000      2.66000000E-01  
21.83000000      2.68000000E-01  
21.84000000      2.72000000E-01  
21.85000000      2.75000000E-01  
21.86000000      2.79900000E-01  
21.87000000      2.84900000E-01  
21.88000000      2.87900000E-01  
21.89000000      2.90900000E-01  
21.90000000      2.92900000E-01  
21.91000000      2.91900000E-01  
21.92000000      2.90900000E-01  
21.93000000      2.88900000E-01  
21.94000000      2.85900000E-01  
21.95000000      2.83900000E-01  
21.96000000      2.81900000E-01  
21.97000000      2.79900000E-01  
21.98000000      2.78900000E-01  
21.99000000      2.77900000E-01  
22.00000000      2.76900000E-01  
22.01000000      2.76900000E-01  
22.02000000      2.75900000E-01  
22.03000000      2.74900000E-01  
22.04000000      2.72900000E-01  
22.05000000      2.71900000E-01  
22.06000000      2.69900000E-01  
22.07000000      2.67900000E-01  
22.08000000      2.67000000E-01  
22.09000000      2.66000000E-01  
22.10000000      2.65000000E-01  
22.11000000      2.65000000E-01  
22.12000000      2.64000000E-01  
22.13000000      2.64000000E-01  
22.14000000      2.63000000E-01  
22.15000000      2.61000000E-01  
22.16000000      2.60000000E-01  
22.17000000      2.58000000E-01  
22.18000000      2.56000000E-01  
22.19000000      2.55000000E-01  
22.20000000      2.53000000E-01  
22.21000000      2.52000000E-01  
22.22000000      2.52000000E-01  
22.23000000      2.52000000E-01  
22.24000000      2.52000000E-01  
22.25000000      2.52000000E-01  
22.26000000      2.51000000E-01  
22.27000000      2.50000000E-01  
22.28000000      2.49000000E-01  
22.29000000      2.47000000E-01  
22.30000000      2.45000000E-01  
22.31000000      2.43000000E-01  
22.32000000      2.40000000E-01  
22.33000000      2.39000000E-01  
22.34000000      2.37000000E-01  
22.35000000      2.36000000E-01  
22.36000000      2.36000000E-01  
22.37000000      2.35000000E-01  
22.38000000      2.34000000E-01  
22.39000000      2.33000000E-01  
22.40000000      2.31000000E-01  
22.41000000      2.29000000E-01  
22.42000000      2.26000000E-01  
22.43000000      2.22000000E-01  
22.44000000      2.18000000E-01  
22.45000000      2.14000000E-01  
22.46000000      2.10000000E-01  
22.47000000      2.07000000E-01  
22.48000000      2.05000000E-01  
22.49000000      2.03000000E-01  
22.50000000      2.02000000E-01  
22.51000000      2.02000000E-01  
22.52000000      2.01000000E-01  
22.53000000      2.00000000E-01  
22.54000000      1.99000000E-01  
22.55000000      1.98000000E-01  
22.56000000      1.96000000E-01  
22.57000000      1.95000000E-01  
22.58000000      1.94000000E-01  
22.59000000      1.93000000E-01  
22.60000000      1.93000000E-01  
22.61000000      1.93000000E-01  
22.62000000      1.95000000E-01  
22.63000000      1.96000000E-01  
22.64000000      1.98000000E-01  
22.65000000      1.99000000E-01  
22.66000000      2.01000000E-01  
22.67000000      2.01000000E-01  
22.68000000      2.01000000E-01  
22.69000000      2.01000000E-01  
22.70000000      2.00000000E-01  
22.71000000      1.99000000E-01  
22.72000000      1.99000000E-01  
22.73000000      1.99000000E-01  
22.74000000      1.99000000E-01  
22.75000000      2.00000000E-01  
22.76000000      2.01000000E-01  
22.77000000      2.02000000E-01  
22.78000000      2.03000000E-01  
22.79000000      2.03000000E-01  
22.80000000      2.02000000E-01  
22.81000000      2.02000000E-01  
22.82000000      2.00000000E-01  
22.83000000      1.98000000E-01  
22.84000000      1.95000000E-01  
22.85000000      1.93000000E-01  
22.86000000      1.91000000E-01  
22.87000000      1.90000000E-01  
22.88000000      1.89000000E-01  
22.89000000      1.89000000E-01  
22.90000000      1.89000000E-01  
22.91000000      1.90000000E-01  
22.92000000      1.90000000E-01  
22.93000000      1.91000000E-01  
22.94000000      1.92000000E-01  
22.95000000      1.91900000E-01  
22.96000000      1.91900000E-01  
22.97000000      1.91900000E-01  
22.98000000      1.92900000E-01  
22.99000000      1.92900000E-01  
23.00000000      1.94900000E-01  
23.01000000      1.95900000E-01  
23.02000000      1.97900000E-01  
23.03000000      1.99900000E-01  
23.04000000      2.01900000E-01  
23.05000000      2.02900000E-01  
23.06000000      2.03900000E-01  
23.07000000      2.03900000E-01  
23.08000000      2.02900000E-01  
23.09000000      2.02900000E-01  
23.10000000      2.01900000E-01  
23.11000000      1.99900000E-01  
23.12000000      1.98900000E-01  
23.13000000      1.97900000E-01  
23.14000000      1.97000000E-01  
23.15000000      1.96000000E-01  
23.16000000      1.96000000E-01  
23.17000000      1.95000000E-01  
23.18000000      1.93000000E-01  
23.19000000      1.92000000E-01  
23.20000000      1.90000000E-01  
23.21000000      1.87000000E-01  
23.22000000      1.85000000E-01  
23.23000000      1.81000000E-01  
23.24000000      1.77000000E-01  
23.25000000      1.74000000E-01  
23.26000000      1.70000000E-01  
23.27000000      1.67000000E-01  
23.28000000      1.64000000E-01  
23.29000000      1.62000000E-01  
23.30000000      1.60000000E-01  
23.31000000      1.59000000E-01  
23.32000000      1.57000000E-01  
23.33000000      1.55000000E-01  
23.34000000      1.54000000E-01  
23.35000000      1.52000000E-01  
23.36000000      1.50000000E-01  
23.37000000      1.48000000E-01  
23.38000000      1.46000000E-01  
23.39000000      1.44000000E-01  
23.40000000      1.42000000E-01  
23.41000000      1.41000000E-01  
23.42000000      1.40000000E-01  
23.43000000      1.39000000E-01  
23.44000000      1.38000000E-01  
23.45000000      1.38000000E-01  
23.46000000      1.37000000E-01  
23.47000000      1.36000000E-01  
23.48000000      1.35000000E-01  
23.49000000      1.33000000E-01  
23.50000000      1.31000000E-01  
23.51000000      1.29000000E-01  
23.52000000      1.27000000E-01  
23.53000000      1.24000000E-01  
23.54000000      1.22000000E-01  
23.55000000      1.21000000E-01  
23.56000000      1.19000000E-01  
23.57000000      1.18000000E-01  
23.58000000      1.18000000E-01  
23.59000000      1.17000000E-01  
23.60000000      1.17000000E-01  
23.61000000      1.18000000E-01  
23.62000000      1.18000000E-01  
23.63000000      1.18000000E-01  
23.64000000      1.18000000E-01  
23.65000000      1.18000000E-01  
23.66000000      1.18000000E-01  
23.67000000      1.18000000E-01  
23.68000000      1.18000000E-01  
23.69000000      1.18000000E-01  
23.70000000      1.19000000E-01  
23.71000000      1.19000000E-01  
23.72000000      1.20000000E-01  
23.73000000      1.21000000E-01  
23.74000000      1.22000000E-01  
23.75000000      1.22000000E-01  
23.76000000      1.22000000E-01  
23.77000000      1.22000000E-01  
23.78000000      1.22000000E-01  
23.79000000      1.21000000E-01  
23.80000000      1.21000000E-01  
23.81000000      1.20000000E-01  
23.82000000      1.20000000E-01  
23.83000000      1.19000000E-01  
23.84000000      1.19000000E-01  
23.85000000      1.20000000E-01  
23.86000000      1.20000000E-01  
23.87000000      1.21000000E-01  
23.88000000      1.23000000E-01  
23.89000000      1.24000000E-01  
23.90000000      1.26000000E-01  
23.91000000      1.27000000E-01  
23.92000000      1.28000000E-01  
23.93000000      1.29000000E-01  
23.94000000      1.30000000E-01  
23.95000000      1.31000000E-01  
23.96000000      1.32000000E-01  
23.97000000      1.32000000E-01  
23.98000000      1.33000000E-01  
23.99000000      1.34000000E-01  
24.00000000      1.35000000E-01  
24.01000000      1.36000000E-01  
24.02000000      1.38000000E-01  
24.03000000      1.39000000E-01  
24.04000000      1.41000000E-01  
24.05000000      1.43000000E-01  
24.06000000      1.44000000E-01  
24.07000000      1.45000000E-01  
24.08000000      1.45000000E-01  
24.09000000      1.46000000E-01  
24.10000000      1.46000000E-01  
24.11000000      1.46000000E-01  
24.12000000      1.46000000E-01  
24.13000000      1.46000000E-01  
24.14000000      1.46000000E-01  
24.15000000      1.46000000E-01  
24.16000000      1.47000000E-01  
24.17000000      1.48000000E-01  
24.18000000      1.49000000E-01  
24.19000000      1.50000000E-01  
24.20000000      1.51000000E-01  
24.21000000      1.51000000E-01  
24.22000000      1.51000000E-01  
24.23000000      1.51000000E-01  
24.24000000      1.50000000E-01  
24.25000000      1.50000000E-01  
24.26000000      1.49000000E-01  
24.27000000      1.48000000E-01  
24.28000000      1.47000000E-01  
24.29000000      1.47000000E-01  
24.30000000      1.46000000E-01  
24.31000000      1.46000000E-01  
24.32000000      1.47000000E-01  
24.33000000      1.48000000E-01  
24.34000000      1.48000000E-01  
24.35000000      1.49000000E-01  
24.36000000      1.49000000E-01  
24.37000000      1.50000000E-01  
24.38000000      1.50000000E-01  
24.39000000      1.50000000E-01  
24.40000000      1.50000000E-01  
24.41000000      1.49000000E-01  
24.42000000      1.49000000E-01  
24.43000000      1.48000000E-01  
24.44000000      1.48000000E-01  
24.45000000      1.48000000E-01  
24.46000000      1.47000000E-01  
24.47000000      1.47000000E-01  
24.48000000      1.47000000E-01  
24.49000000      1.46000000E-01  
24.50000000      1.46000000E-01  
24.51000000      1.45000000E-01  
24.52000000      1.44000000E-01  
24.53000000      1.42100000E-01  
24.54000000      1.41100000E-01  
24.55000000      1.39100000E-01  
24.56000000      1.37100000E-01  
24.57000000      1.35100000E-01  
24.58000000      1.33100000E-01  
24.59000000      1.31100000E-01  
24.60000000      1.29100000E-01  
24.61000000      1.28100000E-01  
24.62000000      1.27100000E-01  
24.63000000      1.26100000E-01  
24.64000000      1.26100000E-01  
24.65000000      1.26100000E-01  
24.66000000      1.25100000E-01  
24.67000000      1.25100000E-01  
24.68000000      1.25100000E-01  
24.69000000      1.24100000E-01  
24.70000000      1.23100000E-01  
24.71000000      1.23100000E-01  
24.72000000      1.22100000E-01  
24.73000000      1.20100000E-01  
24.74000000      1.19100000E-01  
24.75000000      1.18100000E-01  
24.76000000      1.17100000E-01  
24.77000000      1.17100000E-01  
24.78000000      1.16100000E-01  
24.79000000      1.16100000E-01  
24.80000000      1.16100000E-01  
24.81000000      1.16100000E-01  
24.82000000      1.16100000E-01  
24.83000000      1.15100000E-01  
24.84000000      1.15100000E-01  
24.85000000      1.14100000E-01  
24.86000000      1.13100000E-01  
24.87000000      1.12100000E-01  
24.88000000      1.10100000E-01  
24.89000000      1.09100000E-01  
24.90000000      1.08100000E-01  
24.91000000      1.07100000E-01  
24.92000000      1.06100000E-01  
24.93000000      1.05100000E-01  
24.94000000      1.05100000E-01  
24.95000000      1.04100000E-01  
24.96000000      1.03100000E-01  
24.97000000      1.03100000E-01  
24.98000000      1.02100000E-01  
24.99000000      1.01100000E-01  
25.00000000      1.00000000E-01  
25.01000000      9.89200000E-02  
25.02000000      9.73200000E-02  
25.03000000      9.56300000E-02  
25.04000000      9.39300000E-02  
25.05000000      9.21400000E-02  
25.06000000      9.03500000E-02  
25.07000000      8.85500000E-02  
25.08000000      8.70600000E-02  
25.09000000      8.57700000E-02  
25.10000000      8.44800000E-02  
25.11000000      8.34800000E-02  
25.12000000      8.26800000E-02  
25.13000000      8.18800000E-02  
25.14000000      8.11700000E-02  
25.15000000      8.05600000E-02  
25.16000000      7.99500000E-02  
25.17000000      7.93400000E-02  
25.18000000      7.88400000E-02  
25.19000000      7.82400000E-02  
25.20000000      7.77400000E-02  
25.21000000      7.72500000E-02  
25.22000000      7.68600000E-02  
25.23000000      7.64700000E-02  
25.24000000      7.62800000E-02  
25.25000000      7.60900000E-02  
25.26000000      7.60000000E-02  
25.27000000      7.61000000E-02  
25.28000000      7.62000000E-02  
25.29000000      7.62000000E-02  
25.30000000      7.62000000E-02  
25.31000000      7.62000000E-02  
25.32000000      7.61000000E-02  
25.33000000      7.56000000E-02  
25.34000000      7.51900000E-02  
25.35000000      7.45900000E-02  
25.36000000      7.37900000E-02  
25.37000000      7.29800000E-02  
25.38000000      7.21800000E-02  
25.39000000      7.13800000E-02  
25.40000000      7.05700000E-02  
25.41000000      6.98700000E-02  
25.42000000      6.92700000E-02  
25.43000000      6.86700000E-02  
25.44000000      6.80700000E-02  
25.45000000      6.74700000E-02  
25.46000000      6.66800000E-02  
25.47000000      6.59800000E-02  
25.48000000      6.48900000E-02  
25.49000000      6.36000000E-02  
25.50000000      6.24000000E-02  
25.51000000      6.09100000E-02  
25.52000000      5.92200000E-02  
25.53000000      5.76300000E-02  
25.54000000      5.60400000E-02  
25.55000000      5.46500000E-02  
25.56000000      5.32600000E-02  
25.57000000      5.20600000E-02  
25.58000000      5.12700000E-02  
25.59000000      5.05700000E-02  
25.60000000      4.98800000E-02  
25.61000000      4.93800000E-02  
25.62000000      4.88800000E-02  
25.63000000      4.83900000E-02  
25.64000000      4.75900000E-02  
25.65000000      4.66000000E-02  
25.66000000      4.57100000E-02  
25.67000000      4.44200000E-02  
25.68000000      4.29400000E-02  
25.69000000      4.13600000E-02  
25.70000000      3.97700000E-02  
25.71000000      3.80800000E-02  
25.72000000      3.64000000E-02  
25.73000000      3.48100000E-02  
25.74000000      3.36100000E-02  
25.75000000      3.23100000E-02  
25.76000000      3.12100000E-02  
25.77000000      3.07300000E-02  
25.78000000      3.02400000E-02  
25.79000000      2.97600000E-02  
25.80000000      2.97800000E-02  
25.81000000      2.98100000E-02  
25.82000000      2.99300000E-02  
25.83000000      3.01500000E-02  
25.84000000      3.04600000E-02  
25.85000000      3.08800000E-02  
25.86000000      3.11900000E-02  
25.87000000      3.16800000E-02  
25.88000000      3.20800000E-02  
25.89000000      3.25700000E-02  
25.90000000      3.30500000E-02  
25.91000000      3.35300000E-02  
25.92000000      3.40200000E-02  
25.93000000      3.43100000E-02  
25.94000000      3.47000000E-02  
25.95000000      3.50000000E-02  
25.96000000      3.51000000E-02  
25.97000000      3.51900000E-02  
25.98000000      3.52000000E-02  
25.99000000      3.51000000E-02  
26.00000000      3.48100000E-02  
26.01000000      3.44200000E-02  
26.02000000      3.40400000E-02  
26.03000000      3.34500000E-02  
26.04000000      3.28700000E-02  
26.05000000      3.22900000E-02  
26.06000000      3.16200000E-02  
26.07000000      3.09400000E-02  
26.08000000      3.02700000E-02  
26.09000000      2.97000000E-02  
26.10000000      2.91300000E-02  
26.11000000      2.85700000E-02  
26.12000000      2.80100000E-02  
26.13000000      2.74600000E-02  
26.14000000      2.69900000E-02  
26.15000000      2.64200000E-02  
26.16000000      2.58500000E-02  
26.17000000      2.52700000E-02  
26.18000000      2.46100000E-02  
26.19000000      2.38300000E-02  
26.20000000      2.30300000E-02  
26.21000000      2.22500000E-02  
26.22000000      2.14500000E-02  
26.23000000      2.07300000E-02  
26.24000000      2.00100000E-02  
26.25000000      1.93800000E-02  
26.26000000      1.90400000E-02  
26.27000000      1.87800000E-02  
26.28000000      1.84400000E-02  
26.29000000      1.86000000E-02  
26.30000000      1.86800000E-02  
26.31000000      1.88500000E-02  
26.32000000      1.90500000E-02  
26.33000000      1.92600000E-02  
26.34000000      1.94700000E-02  
26.35000000      1.95800000E-02  
26.36000000      1.96800000E-02  
26.37000000      1.96900000E-02  
26.38000000      1.97000000E-02  
26.39000000      1.97000000E-02  
26.40000000      1.96100000E-02  
26.41000000      1.95100000E-02  
26.42000000      1.95200000E-02  
26.43000000      1.95200000E-02  
26.44000000      1.95200000E-02  
26.45000000      1.95300000E-02  
26.46000000      1.95500000E-02  
26.47000000      1.95700000E-02  
26.48000000      1.95800000E-02  
26.49000000      1.93100000E-02  
26.50000000      1.90500000E-02  
26.51000000      1.87800000E-02  
26.52000000      1.83400000E-02  
26.53000000      1.76900000E-02  
26.54000000      1.70400000E-02  
26.55000000      1.64000000E-02  
26.56000000      1.57400000E-02  
26.57000000      1.49900000E-02  
26.58000000      1.43200000E-02  
26.59000000      1.35600000E-02  
26.60000000      1.29500000E-02  
26.61000000      1.22700000E-02  
26.62000000      1.16000000E-02  
26.63000000      1.09200000E-02  
26.64000000      1.02500000E-02  
26.65000000      9.57000000E-03  
26.66000000      8.92200000E-03  
26.67000000      8.27500000E-03  
26.68000000      7.61000000E-03  
26.69000000      7.11900000E-03  
26.70000000      7.04600000E-03  
26.71000000      6.89300000E-03  
26.72000000      6.62600000E-03  
26.73000000      2.39700000E-02  
26.74000000      2.66800000E-02  
26.75000000      2.66200000E-02  
26.76000000      2.69000000E-02  
26.77000000      2.60100000E-02  
26.78000000      2.51200000E-02  
26.79000000      2.43200000E-02  
26.80000000      2.35200000E-02  
26.81000000      2.27200000E-02  
26.82000000      2.19400000E-02  
26.83000000      2.10500000E-02  
26.84000000      2.01200000E-02  
26.85000000      1.92300000E-02  
26.86000000      1.83800000E-02  
26.87000000      1.75600000E-02  
26.88000000      1.68000000E-02  
26.89000000      1.60600000E-02  
26.90000000      1.53500000E-02  
26.91000000      1.46900000E-02  
26.92000000      1.40500000E-02  
26.93000000      1.34400000E-02  
26.94000000      1.28600000E-02  
26.95000000      1.22800000E-02  
26.96000000      1.17300000E-02  
26.97000000      1.12100000E-02  
26.98000000      1.07000000E-02  
26.99000000      1.02000000E-02  
27.00000000      9.59700000E-03  
27.01000000      8.90200000E-03  
27.02000000      8.21200000E-03  
27.03000000      7.19700000E-03  
27.04000000      4.39900000E-03  
27.05000000      4.71400000E-03  
27.06000000      5.07600000E-03  
27.07000000      5.50300000E-03  
27.08000000      5.81600000E-03  
27.09000000      6.13400000E-03  
27.10000000      6.45600000E-03  
27.11000000      6.67600000E-03  
27.12000000      6.79100000E-03  
27.13000000      6.88400000E-03  
27.14000000      6.98300000E-03  
27.15000000      6.94900000E-03  
27.16000000      6.91900000E-03  
27.17000000      6.88400000E-03  
27.18000000      6.81500000E-03  
27.19000000      6.72600000E-03  
27.20000000      6.64800000E-03  
27.21000000      6.57500000E-03  
27.22000000      6.43500000E-03  
27.23000000      6.26100000E-03  
27.24000000      6.10600000E-03  
27.25000000      5.89400000E-03  
27.26000000      5.47600000E-03  
27.27000000      5.06100000E-03  
27.28000000      4.67100000E-03  
27.29000000      4.11000000E-03  
27.30000000      3.49500000E-03  
27.31000000      2.93800000E-03  
27.32000000      2.39400000E-03  
27.33000000      1.42800000E-03  
27.34000000      8.48700000E-04  
27.35000000      5.14300000E-04  
27.36000000      3.97700000E-04  
27.37000000      6.26300000E-05  
27.38000000      1.04200000E-04  
27.39000000      8.78000000E-05  
27.40000000      7.37800000E-05  
27.41000000      6.23300000E-05  
27.42000000      5.23500000E-05  
27.43000000      4.41900000E-05  
27.44000000      3.73200000E-05  
27.45000000      3.13200000E-05  
27.46000000      2.63300000E-05  
27.47000000      2.21400000E-05  
27.48000000      1.86100000E-05  
27.49000000      1.56200000E-05  
27.50000000      1.31500000E-05  
27.51000000      1.10500000E-05  
27.52000000      9.27800000E-06  
27.53000000      7.79500000E-06  
27.54000000      7.07700000E-06  
27.55000000      6.62500000E-06  
27.56000000      6.19200000E-06  
27.57000000      5.79600000E-06  
27.58000000      5.40100000E-06  
27.59000000      5.06000000E-06  
27.60000000      4.73700000E-06  
27.61000000      4.43200000E-06  
27.62000000      4.14600000E-06  
27.63000000      3.87800000E-06  
27.64000000      3.62800000E-06  
27.65000000      3.37800000E-06  
27.66000000      3.15900000E-06  
27.67000000      2.95300000E-06  
27.68000000      2.76300000E-06  
27.69000000      2.57700000E-06  
27.70000000      2.40400000E-06  
27.71000000      2.24900000E-06  
27.72000000      4.77400000E-06  
27.73000000      7.18500000E-06  
27.74000000      1.73000000E-05  
27.75000000      8.75500000E-05  
27.76000000      8.03000000E-04  
27.77000000      1.06900000E-03  
27.78000000      1.40100000E-03  
27.79000000      1.79900000E-03  
27.80000000      2.10500000E-03  
27.81000000      2.18500000E-03  
27.82000000      2.24300000E-03  
27.83000000      2.32300000E-03  
27.84000000      2.34700000E-03  
27.85000000      2.35200000E-03  
27.86000000      2.35900000E-03  
27.87000000      2.36900000E-03  
27.88000000      2.35500000E-03  
27.89000000      2.35200000E-03  
27.90000000      2.35100000E-03  
27.91000000      2.31400000E-03  
27.92000000      2.12900000E-03  
27.93000000      1.97000000E-03  
27.94000000      1.81600000E-03  
27.95000000      1.51800000E-03  
27.96000000      1.11300000E-03  
27.97000000      8.09100000E-04  
27.98000000      5.91700000E-04  
27.99000000      1.31100000E-04  
28.00000000      3.66000000E-05  
28.05000000      8.79700000E-06  
28.10000000      1.06400000E-05  
28.15000000      1.14800000E-05  
28.20000000      1.24200000E-05  
28.25000000      1.35100000E-05  
28.30000000      1.41700000E-05  
28.35000000      1.39000000E-05  
28.40000000      1.37800000E-05  
28.45000000      1.37100000E-05  
28.50000000      1.26600000E-05  
28.55000000      1.08900000E-05  
